Sub_id,SubjectType,Date,Experimenter,TrialNumber,Block,BlockModality,Age,Sex,Handedness,Condition,TrialType,Modality,AVgap,Vibration,Vibrationid,IntraBlock-NovelNumber,Digit,Mask,StimulusDuration,CorrectResponse,Response,Accuracy,RT,ButtonDownTime,KeysMapping,VibOrder,Sound
1,Control,03/04/2014,UMEA Lab,1,1,1,24,male,right,practice,standardS_,Sound,100,0,NA,-,5,mask0.bmp,200,63,63,1,835,168,Handle 63 _Odd_Left,Fast_novel,standard.wav
1,Control,03/04/2014,UMEA Lab,2,1,1,24,male,right,practice,standardS_,Sound,100,0,NA,-,4,mask0.bmp,200,255,255,1,595,174,Handle 63 _Odd_Left,Fast_novel,standard.wav
1,Control,03/04/2014,UMEA Lab,3,1,1,24,male,right,practice,standardS_,Sound,100,0,NA,-,7,mask0.bmp,200,63,63,1,579,171,Handle 63 _Odd_Left,Fast_novel,standard.wav
1,Control,03/04/2014,UMEA Lab,4,1,1,24,male,right,practice,standardS_,Sound,100,0,NA,-,1,mask0.bmp,200,62,63,0,718,172,Handle 63 _Odd_Left,Fast_novel,standard.wav
1,Control,03/04/2014,UMEA Lab,5,1,1,24,male,right,practice,standardS_,Sound,100,0,NA,-,3,mask0.bmp,200,63,63,1,556,170,Handle 63 _Odd_Left,Fast_novel,standard.wav
1,Control,03/04/2014,UMEA Lab,6,1,1,24,male,right,practice,standardS_,Sound,100,0,NA,-,2,mask0.bmp,200,255,255,1,546,187,Handle 63 _Odd_Left,Fast_novel,standard.wav
1,Control,03/04/2014,UMEA Lab,7,1,1,24,male,right,practice,standardS_,Sound,100,0,NA,-,8,mask0.bmp,200,255,255,1,572,179,Handle 63 _Odd_Left,Fast_novel,standard.wav
1,Control,03/04/2014,UMEA Lab,8,1,1,24,male,right,practice,standardS_,Sound,100,0,NA,-,6,mask0.bmp,200,255,63,0,522,171,Handle 63 _Odd_Left,Fast_novel,standard.wav
1,Control,03/04/2014,UMEA Lab,1,1,1,24,male,right,standardS_,Standard,Sound,100,0,NA,-,1,mask0.bmp,200,63,63,1,622,209,Handle 63 _Odd_Left,Fast_novel,standard.wav
1,Control,03/04/2014,UMEA Lab,2,1,1,24,male,right,novelS_,Novel,Sound,100,0,NA,-,7,mask0.bmp,200,63,63,1,766,198,Handle 63 _Odd_Left,Fast_novel,novel.wav
1,Control,03/04/2014,UMEA Lab,3,1,1,24,male,right,standardS_,Standard,Sound,100,0,NA,-,4,mask0.bmp,200,255,255,1,616,179,Handle 63 _Odd_Left,Fast_novel,standard.wav
1,Control,03/04/2014,UMEA Lab,4,1,1,24,male,right,standardS_,Standard,Sound,100,0,NA,-,5,mask0.bmp,200,63,63,1,599,204,Handle 63 _Odd_Left,Fast_novel,standard.wav
1,Control,03/04/2014,UMEA Lab,5,1,1,24,male,right,novelS_,Novel,Sound,100,0,NA,-,8,mask0.bmp,200,255,255,1,579,189,Handle 63 _Odd_Left,Fast_novel,novel.wav
1,Control,03/04/2014,UMEA Lab,6,1,1,24,male,right,standardS_,Standard,Sound,100,0,NA,-,1,mask0.bmp,200,63,63,1,579,206,Handle 63 _Odd_Left,Fast_novel,standard.wav
1,Control,03/04/2014,UMEA Lab,7,1,1,24,male,right,standardS_,Standard,Sound,100,0,NA,-,8,mask0.bmp,200,255,255,1,573,188,Handle 63 _Odd_Left,Fast_novel,standard.wav
1,Control,03/04/2014,UMEA Lab,8,1,1,24,male,right,novelS_,Novel,Sound,100,0,NA,-,1,mask0.bmp,200,63,63,1,577,202,Handle 63 _Odd_Left,Fast_novel,novel.wav
1,Control,03/04/2014,UMEA Lab,9,1,1,24,male,right,standardS_,Standard,Sound,100,0,NA,-,8,mask0.bmp,200,255,255,1,513,190,Handle 63 _Odd_Left,Fast_novel,standard.wav
1,Control,03/04/2014,UMEA Lab,10,1,1,24,male,right,standardS_,Standard,Sound,100,0,NA,-,2,mask0.bmp,200,255,255,1,555,185,Handle 63 _Odd_Left,Fast_novel,standard.wav
1,Control,03/04/2014,UMEA Lab,11,1,1,24,male,right,standardS_,Standard,Sound,100,0,NA,-,3,mask0.bmp,200,63,63,1,550,173,Handle 63 _Odd_Left,Fast_novel,standard.wav
1,Control,03/04/2014,UMEA Lab,12,1,1,24,male,right,standardS_,Standard,Sound,100,0,NA,-,2,mask0.bmp,200,255,255,1,606,193,Handle 63 _Odd_Left,Fast_novel,standard.wav
1,Control,03/04/2014,UMEA Lab,13,1,1,24,male,right,standardS_,Standard,Sound,100,0,NA,-,5,mask0.bmp,200,63,63,1,645,215,Handle 63 _Odd_Left,Fast_novel,standard.wav
1,Control,03/04/2014,UMEA Lab,14,1,1,24,male,right,standardS_,Standard,Sound,100,0,NA,-,2,mask0.bmp,200,255,255,1,542,191,Handle 63 _Odd_Left,Fast_novel,standard.wav
1,Control,03/04/2014,UMEA Lab,15,1,1,24,male,right,novelS_,Novel,Sound,100,0,NA,-,3,mask0.bmp,200,63,63,1,604,213,Handle 63 _Odd_Left,Fast_novel,novel.wav
1,Control,03/04/2014,UMEA Lab,16,1,1,24,male,right,standardS_,Standard,Sound,100,0,NA,-,8,mask0.bmp,200,255,255,1,525,175,Handle 63 _Odd_Left,Fast_novel,standard.wav
1,Control,03/04/2014,UMEA Lab,17,1,1,24,male,right,standardS_,Standard,Sound,100,0,NA,-,1,mask0.bmp,200,63,255,0,518,136,Handle 63 _Odd_Left,Fast_novel,standard.wav
1,Control,03/04/2014,UMEA Lab,18,1,1,24,male,right,standardS_,Standard,Sound,100,0,NA,-,8,mask0.bmp,200,255,255,1,561,189,Handle 63 _Odd_Left,Fast_novel,standard.wav
1,Control,03/04/2014,UMEA Lab,19,1,1,24,male,right,standardS_,Standard,Sound,100,0,NA,-,5,mask0.bmp,200,63,63,1,562,245,Handle 63 _Odd_Left,Fast_novel,standard.wav
1,Control,03/04/2014,UMEA Lab,20,1,1,24,male,right,standardS_,Standard,Sound,100,0,NA,-,4,mask0.bmp,200,255,255,1,579,181,Handle 63 _Odd_Left,Fast_novel,standard.wav
1,Control,03/04/2014,UMEA Lab,21,1,1,24,male,right,novelS_,Novel,Sound,100,0,NA,-,6,mask0.bmp,200,255,63,0,586,77,Handle 63 _Odd_Left,Fast_novel,novel.wav
1,Control,03/04/2014,UMEA Lab,22,1,1,24,male,right,standardS_,Standard,Sound,100,0,NA,-,8,mask0.bmp,200,255,255,1,573,172,Handle 63 _Odd_Left,Fast_novel,standard.wav
1,Control,03/04/2014,UMEA Lab,23,1,1,24,male,right,standardS_,Standard,Sound,100,0,NA,-,6,mask0.bmp,200,255,255,1,594,174,Handle 63 _Odd_Left,Fast_novel,standard.wav
1,Control,03/04/2014,UMEA Lab,24,1,1,24,male,right,standardS_,Standard,Sound,100,0,NA,-,1,mask0.bmp,200,63,63,1,529,231,Handle 63 _Odd_Left,Fast_novel,standard.wav
1,Control,03/04/2014,UMEA Lab,25,1,1,24,male,right,standardS_,Standard,Sound,100,0,NA,-,7,mask0.bmp,200,63,63,1,562,225,Handle 63 _Odd_Left,Fast_novel,standard.wav
1,Control,03/04/2014,UMEA Lab,26,1,1,24,male,right,standardS_,Standard,Sound,100,0,NA,-,6,mask0.bmp,200,255,255,1,597,186,Handle 63 _Odd_Left,Fast_novel,standard.wav
1,Control,03/04/2014,UMEA Lab,27,1,1,24,male,right,standardS_,Standard,Sound,100,0,NA,-,1,mask0.bmp,200,63,63,1,555,223,Handle 63 _Odd_Left,Fast_novel,standard.wav
1,Control,03/04/2014,UMEA Lab,28,1,1,24,male,right,standardS_,Standard,Sound,100,0,NA,-,6,mask0.bmp,200,255,255,1,549,195,Handle 63 _Odd_Left,Fast_novel,standard.wav
1,Control,03/04/2014,UMEA Lab,29,1,1,24,male,right,standardS_,Standard,Sound,100,0,NA,-,1,mask0.bmp,200,63,63,1,580,215,Handle 63 _Odd_Left,Fast_novel,standard.wav
1,Control,03/04/2014,UMEA Lab,30,1,1,24,male,right,standardS_,Standard,Sound,100,0,NA,-,5,mask0.bmp,200,63,63,1,605,226,Handle 63 _Odd_Left,Fast_novel,standard.wav
1,Control,03/04/2014,UMEA Lab,31,1,1,24,male,right,standardS_,Standard,Sound,100,0,NA,-,3,mask0.bmp,200,63,63,1,573,224,Handle 63 _Odd_Left,Fast_novel,standard.wav
1,Control,03/04/2014,UMEA Lab,32,1,1,24,male,right,standardS_,Standard,Sound,100,0,NA,-,2,mask0.bmp,200,255,255,1,514,185,Handle 63 _Odd_Left,Fast_novel,standard.wav
1,Control,03/04/2014,UMEA Lab,33,1,1,24,male,right,standardS_,Standard,Sound,100,0,NA,-,7,mask0.bmp,200,63,63,1,537,222,Handle 63 _Odd_Left,Fast_novel,standard.wav
1,Control,03/04/2014,UMEA Lab,34,1,1,24,male,right,novelS_,Novel,Sound,100,0,NA,-,8,mask0.bmp,200,255,255,1,507,174,Handle 63 _Odd_Left,Fast_novel,novel.wav
1,Control,03/04/2014,UMEA Lab,35,1,1,24,male,right,standardS_,Standard,Sound,100,0,NA,-,6,mask0.bmp,200,255,255,1,509,179,Handle 63 _Odd_Left,Fast_novel,standard.wav
1,Control,03/04/2014,UMEA Lab,36,1,1,24,male,right,standardS_,Standard,Sound,100,0,NA,-,3,mask0.bmp,200,63,63,1,528,211,Handle 63 _Odd_Left,Fast_novel,standard.wav
1,Control,03/04/2014,UMEA Lab,37,1,1,24,male,right,standardS_,Standard,Sound,100,0,NA,-,1,mask0.bmp,200,63,63,1,559,200,Handle 63 _Odd_Left,Fast_novel,standard.wav
1,Control,03/04/2014,UMEA Lab,38,1,1,24,male,right,standardS_,Standard,Sound,100,0,NA,-,7,mask0.bmp,200,63,63,1,548,227,Handle 63 _Odd_Left,Fast_novel,standard.wav
1,Control,03/04/2014,UMEA Lab,39,1,1,24,male,right,standardS_,Standard,Sound,100,0,NA,-,6,mask0.bmp,200,255,255,1,517,182,Handle 63 _Odd_Left,Fast_novel,standard.wav
1,Control,03/04/2014,UMEA Lab,40,1,1,24,male,right,novelS_,Novel,Sound,100,0,NA,-,3,mask0.bmp,200,63,63,1,434,230,Handle 63 _Odd_Left,Fast_novel,novel.wav
1,Control,03/04/2014,UMEA Lab,41,1,1,24,male,right,standardS_,Standard,Sound,100,0,NA,-,2,mask0.bmp,200,255,63,0,449,131,Handle 63 _Odd_Left,Fast_novel,standard.wav
1,Control,03/04/2014,UMEA Lab,42,1,1,24,male,right,standardS_,Standard,Sound,100,0,NA,-,7,mask0.bmp,200,63,63,1,491,193,Handle 63 _Odd_Left,Fast_novel,standard.wav
1,Control,03/04/2014,UMEA Lab,43,1,1,24,male,right,novelS_,Novel,Sound,100,0,NA,-,8,mask0.bmp,200,255,255,1,486,154,Handle 63 _Odd_Left,Fast_novel,novel.wav
1,Control,03/04/2014,UMEA Lab,44,1,1,24,male,right,standardS_,Standard,Sound,100,0,NA,-,2,mask0.bmp,200,255,63,0,483,177,Handle 63 _Odd_Left,Fast_novel,standard.wav
1,Control,03/04/2014,UMEA Lab,45,1,1,24,male,right,standardS_,Standard,Sound,100,0,NA,-,5,mask0.bmp,200,63,63,1,602,211,Handle 63 _Odd_Left,Fast_novel,standard.wav
1,Control,03/04/2014,UMEA Lab,46,1,1,24,male,right,standardS_,Standard,Sound,100,0,NA,-,4,mask0.bmp,200,255,255,1,514,83,Handle 63 _Odd_Left,Fast_novel,standard.wav
1,Control,03/04/2014,UMEA Lab,47,1,1,24,male,right,standardS_,Standard,Sound,100,0,NA,-,1,mask0.bmp,200,63,63,1,593,207,Handle 63 _Odd_Left,Fast_novel,standard.wav
1,Control,03/04/2014,UMEA Lab,48,1,1,24,male,right,novelS_,Novel,Sound,100,0,NA,-,2,mask0.bmp,200,255,255,1,584,175,Handle 63 _Odd_Left,Fast_novel,novel.wav
1,Control,03/04/2014,UMEA Lab,49,1,1,24,male,right,standardS_,Standard,Sound,100,0,NA,-,5,mask0.bmp,200,63,63,1,609,208,Handle 63 _Odd_Left,Fast_novel,standard.wav
1,Control,03/04/2014,UMEA Lab,50,1,1,24,male,right,standardS_,Standard,Sound,100,0,NA,-,6,mask0.bmp,200,255,255,1,605,185,Handle 63 _Odd_Left,Fast_novel,standard.wav
1,Control,03/04/2014,UMEA Lab,51,1,1,24,male,right,novelS_,Novel,Sound,100,0,NA,-,7,mask0.bmp,200,63,63,1,603,210,Handle 63 _Odd_Left,Fast_novel,novel.wav
1,Control,03/04/2014,UMEA Lab,52,1,1,24,male,right,standardS_,Standard,Sound,100,0,NA,-,2,mask0.bmp,200,255,255,1,588,177,Handle 63 _Odd_Left,Fast_novel,standard.wav
1,Control,03/04/2014,UMEA Lab,53,1,1,24,male,right,standardS_,Standard,Sound,100,0,NA,-,8,mask0.bmp,200,255,255,1,579,178,Handle 63 _Odd_Left,Fast_novel,standard.wav
1,Control,03/04/2014,UMEA Lab,54,1,1,24,male,right,novelS_,Novel,Sound,100,0,NA,-,5,mask0.bmp,200,63,63,1,542,217,Handle 63 _Odd_Left,Fast_novel,novel.wav
1,Control,03/04/2014,UMEA Lab,55,1,1,24,male,right,standardS_,Standard,Sound,100,0,NA,-,6,mask0.bmp,200,255,255,1,533,245,Handle 63 _Odd_Left,Fast_novel,standard.wav
1,Control,03/04/2014,UMEA Lab,56,1,1,24,male,right,standardS_,Standard,Sound,100,0,NA,-,1,mask0.bmp,200,63,63,1,555,220,Handle 63 _Odd_Left,Fast_novel,standard.wav
1,Control,03/04/2014,UMEA Lab,57,1,1,24,male,right,standardS_,Standard,Sound,100,0,NA,-,3,mask0.bmp,200,63,63,1,580,205,Handle 63 _Odd_Left,Fast_novel,standard.wav
1,Control,03/04/2014,UMEA Lab,58,1,1,24,male,right,novelS_,Novel,Sound,100,0,NA,-,6,mask0.bmp,200,255,255,1,491,179,Handle 63 _Odd_Left,Fast_novel,novel.wav
1,Control,03/04/2014,UMEA Lab,59,1,1,24,male,right,standardS_,Standard,Sound,100,0,NA,-,4,mask0.bmp,200,255,63,0,568,177,Handle 63 _Odd_Left,Fast_novel,standard.wav
1,Control,03/04/2014,UMEA Lab,60,1,1,24,male,right,standardS_,Standard,Sound,100,0,NA,-,3,mask0.bmp,200,63,63,1,437,201,Handle 63 _Odd_Left,Fast_novel,standard.wav
1,Control,03/04/2014,UMEA Lab,61,1,1,24,male,right,standardS_,Standard,Sound,100,0,NA,-,7,mask0.bmp,200,63,63,1,590,211,Handle 63 _Odd_Left,Fast_novel,standard.wav
1,Control,03/04/2014,UMEA Lab,62,1,1,24,male,right,standardS_,Standard,Sound,100,0,NA,-,4,mask0.bmp,200,255,255,1,491,177,Handle 63 _Odd_Left,Fast_novel,standard.wav
1,Control,03/04/2014,UMEA Lab,63,1,1,24,male,right,standardS_,Standard,Sound,100,0,NA,-,5,mask0.bmp,200,63,63,1,600,239,Handle 63 _Odd_Left,Fast_novel,standard.wav
1,Control,03/04/2014,UMEA Lab,64,1,1,24,male,right,novelS_,Novel,Sound,100,0,NA,-,8,mask0.bmp,200,255,255,1,509,182,Handle 63 _Odd_Left,Fast_novel,novel.wav
1,Control,03/04/2014,UMEA Lab,65,1,1,24,male,right,standardS_,Standard,Sound,100,0,NA,-,5,mask0.bmp,200,63,63,1,517,211,Handle 63 _Odd_Left,Fast_novel,standard.wav
1,Control,03/04/2014,UMEA Lab,66,1,1,24,male,right,standardS_,Standard,Sound,100,0,NA,-,1,mask0.bmp,200,63,63,1,556,213,Handle 63 _Odd_Left,Fast_novel,standard.wav
1,Control,03/04/2014,UMEA Lab,67,1,1,24,male,right,novelS_,Novel,Sound,100,0,NA,-,2,mask0.bmp,200,255,255,1,518,177,Handle 63 _Odd_Left,Fast_novel,novel.wav
1,Control,03/04/2014,UMEA Lab,68,1,1,24,male,right,standardS_,Standard,Sound,100,0,NA,-,8,mask0.bmp,200,255,255,1,584,172,Handle 63 _Odd_Left,Fast_novel,standard.wav
1,Control,03/04/2014,UMEA Lab,69,1,1,24,male,right,standardS_,Standard,Sound,100,0,NA,-,6,mask0.bmp,200,255,63,0,485,148,Handle 63 _Odd_Left,Fast_novel,standard.wav
1,Control,03/04/2014,UMEA Lab,70,1,1,24,male,right,standardS_,Standard,Sound,100,0,NA,-,1,mask0.bmp,200,63,63,1,522,211,Handle 63 _Odd_Left,Fast_novel,standard.wav
1,Control,03/04/2014,UMEA Lab,71,1,1,24,male,right,standardS_,Standard,Sound,100,0,NA,-,8,mask0.bmp,200,255,255,1,477,181,Handle 63 _Odd_Left,Fast_novel,standard.wav
1,Control,03/04/2014,UMEA Lab,72,1,1,24,male,right,standardS_,Standard,Sound,100,0,NA,-,7,mask0.bmp,200,63,63,1,609,223,Handle 63 _Odd_Left,Fast_novel,standard.wav
1,Control,03/04/2014,UMEA Lab,73,1,1,24,male,right,novelS_,Novel,Sound,100,0,NA,-,3,mask0.bmp,200,63,255,0,493,178,Handle 63 _Odd_Left,Fast_novel,novel.wav
1,Control,03/04/2014,UMEA Lab,74,1,1,24,male,right,standardS_,Standard,Sound,100,0,NA,-,8,mask0.bmp,200,255,255,1,509,144,Handle 63 _Odd_Left,Fast_novel,standard.wav
1,Control,03/04/2014,UMEA Lab,75,1,1,24,male,right,standardS_,Standard,Sound,100,0,NA,-,7,mask0.bmp,200,63,63,1,521,211,Handle 63 _Odd_Left,Fast_novel,standard.wav
1,Control,03/04/2014,UMEA Lab,76,1,1,24,male,right,standardS_,Standard,Sound,100,0,NA,-,6,mask0.bmp,200,255,255,1,514,161,Handle 63 _Odd_Left,Fast_novel,standard.wav
1,Control,03/04/2014,UMEA Lab,77,1,1,24,male,right,novelS_,Novel,Sound,100,0,NA,-,5,mask0.bmp,200,63,63,1,507,202,Handle 63 _Odd_Left,Fast_novel,novel.wav
1,Control,03/04/2014,UMEA Lab,78,1,1,24,male,right,standardS_,Standard,Sound,100,0,NA,-,7,mask0.bmp,200,63,255,0,487,127,Handle 63 _Odd_Left,Fast_novel,standard.wav
1,Control,03/04/2014,UMEA Lab,79,1,1,24,male,right,standardS_,Standard,Sound,100,0,NA,-,2,mask0.bmp,200,255,63,0,489,144,Handle 63 _Odd_Left,Fast_novel,standard.wav
1,Control,03/04/2014,UMEA Lab,80,1,1,24,male,right,standardS_,Standard,Sound,100,0,NA,-,4,mask0.bmp,200,255,255,1,516,179,Handle 63 _Odd_Left,Fast_novel,standard.wav
1,Control,03/04/2014,UMEA Lab,81,1,1,24,male,right,novelS_,Novel,Sound,100,0,NA,-,2,mask0.bmp,200,255,255,1,540,165,Handle 63 _Odd_Left,Fast_novel,novel.wav
1,Control,03/04/2014,UMEA Lab,82,1,1,24,male,right,standardS_,Standard,Sound,100,0,NA,-,7,mask0.bmp,200,63,63,1,435,208,Handle 63 _Odd_Left,Fast_novel,standard.wav
1,Control,03/04/2014,UMEA Lab,83,1,1,24,male,right,standardS_,Standard,Sound,100,0,NA,-,2,mask0.bmp,200,255,255,1,552,170,Handle 63 _Odd_Left,Fast_novel,standard.wav
1,Control,03/04/2014,UMEA Lab,84,1,1,24,male,right,novelS_,Novel,Sound,100,0,NA,-,3,mask0.bmp,200,63,63,1,591,174,Handle 63 _Odd_Left,Fast_novel,novel.wav
1,Control,03/04/2014,UMEA Lab,85,1,1,24,male,right,standardS_,Standard,Sound,100,0,NA,-,7,mask0.bmp,200,63,63,1,532,199,Handle 63 _Odd_Left,Fast_novel,standard.wav
1,Control,03/04/2014,UMEA Lab,86,1,1,24,male,right,standardS_,Standard,Sound,100,0,NA,-,3,mask0.bmp,200,63,63,1,511,199,Handle 63 _Odd_Left,Fast_novel,standard.wav
1,Control,03/04/2014,UMEA Lab,87,1,1,24,male,right,novelS_,Novel,Sound,100,0,NA,-,2,mask0.bmp,200,255,255,1,509,138,Handle 63 _Odd_Left,Fast_novel,novel.wav
1,Control,03/04/2014,UMEA Lab,88,1,1,24,male,right,standardS_,Standard,Sound,100,0,NA,-,3,mask0.bmp,200,63,63,1,481,199,Handle 63 _Odd_Left,Fast_novel,standard.wav
1,Control,03/04/2014,UMEA Lab,89,1,1,24,male,right,standardS_,Standard,Sound,100,0,NA,-,5,mask0.bmp,200,63,255,0,447,160,Handle 63 _Odd_Left,Fast_novel,standard.wav
1,Control,03/04/2014,UMEA Lab,90,1,1,24,male,right,standardS_,Standard,Sound,100,0,NA,-,3,mask0.bmp,200,63,63,1,560,190,Handle 63 _Odd_Left,Fast_novel,standard.wav
1,Control,03/04/2014,UMEA Lab,91,1,1,24,male,right,standardS_,Standard,Sound,100,0,NA,-,2,mask0.bmp,200,255,63,0,438,186,Handle 63 _Odd_Left,Fast_novel,standard.wav
1,Control,03/04/2014,UMEA Lab,92,1,1,24,male,right,standardS_,Standard,Sound,100,0,NA,-,1,mask0.bmp,200,63,63,1,447,197,Handle 63 _Odd_Left,Fast_novel,standard.wav
1,Control,03/04/2014,UMEA Lab,93,1,1,24,male,right,novelS_,Novel,Sound,100,0,NA,-,7,mask0.bmp,200,63,255,0,461,150,Handle 63 _Odd_Left,Fast_novel,novel.wav
1,Control,03/04/2014,UMEA Lab,94,1,1,24,male,right,standardS_,Standard,Sound,100,0,NA,-,4,mask0.bmp,200,255,255,1,584,167,Handle 63 _Odd_Left,Fast_novel,standard.wav
1,Control,03/04/2014,UMEA Lab,95,1,1,24,male,right,standardS_,Standard,Sound,100,0,NA,-,7,mask0.bmp,200,63,63,1,544,203,Handle 63 _Odd_Left,Fast_novel,standard.wav
1,Control,03/04/2014,UMEA Lab,96,1,1,24,male,right,standardS_,Standard,Sound,100,0,NA,-,5,mask0.bmp,200,63,63,1,620,173,Handle 63 _Odd_Left,Fast_novel,standard.wav
1,Control,03/04/2014,UMEA Lab,97,1,1,24,male,right,novelS_,Novel,Sound,100,0,NA,-,4,mask0.bmp,200,255,255,1,550,163,Handle 63 _Odd_Left,Fast_novel,novel.wav
1,Control,03/04/2014,UMEA Lab,98,1,1,24,male,right,standardS_,Standard,Sound,100,0,NA,-,1,mask0.bmp,200,63,63,1,608,186,Handle 63 _Odd_Left,Fast_novel,standard.wav
1,Control,03/04/2014,UMEA Lab,99,1,1,24,male,right,standardS_,Standard,Sound,100,0,NA,-,8,mask0.bmp,200,255,255,1,544,135,Handle 63 _Odd_Left,Fast_novel,standard.wav
1,Control,03/04/2014,UMEA Lab,100,1,1,24,male,right,standardS_,Standard,Sound,100,0,NA,-,6,mask0.bmp,200,255,63,0,479,114,Handle 63 _Odd_Left,Fast_novel,standard.wav
1,Control,03/04/2014,UMEA Lab,101,1,1,24,male,right,standardS_,Standard,Sound,100,0,NA,-,5,mask0.bmp,200,63,63,1,486,187,Handle 63 _Odd_Left,Fast_novel,standard.wav
1,Control,03/04/2014,UMEA Lab,102,1,1,24,male,right,novelS_,Novel,Sound,100,0,NA,-,4,mask0.bmp,200,255,255,1,557,145,Handle 63 _Odd_Left,Fast_novel,novel.wav
1,Control,03/04/2014,UMEA Lab,103,1,1,24,male,right,standardS_,Standard,Sound,100,0,NA,-,3,mask0.bmp,200,63,63,1,497,175,Handle 63 _Odd_Left,Fast_novel,standard.wav
1,Control,03/04/2014,UMEA Lab,104,1,1,24,male,right,standardS_,Standard,Sound,100,0,NA,-,4,mask0.bmp,200,255,63,0,493,122,Handle 63 _Odd_Left,Fast_novel,standard.wav
1,Control,03/04/2014,UMEA Lab,105,1,1,24,male,right,standardS_,Standard,Sound,100,0,NA,-,2,mask0.bmp,200,255,255,1,572,175,Handle 63 _Odd_Left,Fast_novel,standard.wav
1,Control,03/04/2014,UMEA Lab,106,1,1,24,male,right,standardS_,Standard,Sound,100,0,NA,-,6,mask0.bmp,200,255,255,1,518,173,Handle 63 _Odd_Left,Fast_novel,standard.wav
1,Control,03/04/2014,UMEA Lab,107,1,1,24,male,right,standardS_,Standard,Sound,100,0,NA,-,4,mask0.bmp,200,255,255,1,512,169,Handle 63 _Odd_Left,Fast_novel,standard.wav
1,Control,03/04/2014,UMEA Lab,108,1,1,24,male,right,novelS_,Novel,Sound,100,0,NA,-,5,mask0.bmp,200,63,63,1,477,138,Handle 63 _Odd_Left,Fast_novel,novel.wav
1,Control,03/04/2014,UMEA Lab,109,1,1,24,male,right,standardS_,Standard,Sound,100,0,NA,-,1,mask0.bmp,200,63,255,0,528,119,Handle 63 _Odd_Left,Fast_novel,standard.wav
1,Control,03/04/2014,UMEA Lab,110,1,1,24,male,right,standardS_,Standard,Sound,100,0,NA,-,4,mask0.bmp,200,255,255,1,433,151,Handle 63 _Odd_Left,Fast_novel,standard.wav
1,Control,03/04/2014,UMEA Lab,111,1,1,24,male,right,standardS_,Standard,Sound,100,0,NA,-,6,mask0.bmp,200,255,255,1,518,165,Handle 63 _Odd_Left,Fast_novel,standard.wav
1,Control,03/04/2014,UMEA Lab,112,1,1,24,male,right,standardS_,Standard,Sound,100,0,NA,-,3,mask0.bmp,200,63,63,1,461,135,Handle 63 _Odd_Left,Fast_novel,standard.wav
1,Control,03/04/2014,UMEA Lab,113,1,1,24,male,right,standardS_,Standard,Sound,100,0,NA,-,4,mask0.bmp,200,255,255,1,592,164,Handle 63 _Odd_Left,Fast_novel,standard.wav
1,Control,03/04/2014,UMEA Lab,114,1,1,24,male,right,standardS_,Standard,Sound,100,0,NA,-,6,mask0.bmp,200,255,255,1,471,137,Handle 63 _Odd_Left,Fast_novel,standard.wav
1,Control,03/04/2014,UMEA Lab,115,1,1,24,male,right,standardS_,Standard,Sound,100,0,NA,-,8,mask0.bmp,200,255,255,1,490,153,Handle 63 _Odd_Left,Fast_novel,standard.wav
1,Control,03/04/2014,UMEA Lab,116,1,1,24,male,right,standardS_,Standard,Sound,100,0,NA,-,4,mask0.bmp,200,255,63,0,565,165,Handle 63 _Odd_Left,Fast_novel,standard.wav
1,Control,03/04/2014,UMEA Lab,117,1,1,24,male,right,novelS_,Novel,Sound,100,0,NA,-,5,mask0.bmp,200,63,63,1,631,203,Handle 63 _Odd_Left,Fast_novel,novel.wav
1,Control,03/04/2014,UMEA Lab,118,1,1,24,male,right,standardS_,Standard,Sound,100,0,NA,-,7,mask0.bmp,200,63,255,0,477,147,Handle 63 _Odd_Left,Fast_novel,standard.wav
1,Control,03/04/2014,UMEA Lab,119,1,1,24,male,right,standardS_,Standard,Sound,100,0,NA,-,3,mask0.bmp,200,63,63,1,692,162,Handle 63 _Odd_Left,Fast_novel,standard.wav
1,Control,03/04/2014,UMEA Lab,120,1,1,24,male,right,standardS_,Standard,Sound,100,0,NA,-,4,mask0.bmp,200,255,255,1,480,140,Handle 63 _Odd_Left,Fast_novel,standard.wav
1,Control,03/04/2014,UMEA Lab,9,2,2,24,male,right,practice,standardS_,Sound,100,0,NA,-,6,mask0.bmp,200,255,255,1,442,152,Handle 63 _Odd_Left,Fast_novel,standard.wav
1,Control,03/04/2014,UMEA Lab,10,2,2,24,male,right,practice,standardS_,Sound,100,0,NA,-,8,mask0.bmp,200,255,255,1,543,175,Handle 63 _Odd_Left,Fast_novel,standard.wav
1,Control,03/04/2014,UMEA Lab,11,2,2,24,male,right,practice,standardS_,Sound,100,0,NA,-,5,mask0.bmp,200,63,255,0,533,234,Handle 63 _Odd_Left,Fast_novel,standard.wav
1,Control,03/04/2014,UMEA Lab,12,2,2,24,male,right,practice,standardS_,Sound,100,0,NA,-,2,mask0.bmp,200,255,255,1,603,161,Handle 63 _Odd_Left,Fast_novel,standard.wav
1,Control,03/04/2014,UMEA Lab,13,2,2,24,male,right,practice,standardS_,Sound,100,0,NA,-,7,mask0.bmp,200,63,63,1,609,169,Handle 63 _Odd_Left,Fast_novel,standard.wav
1,Control,03/04/2014,UMEA Lab,14,2,2,24,male,right,practice,standardS_,Sound,100,0,NA,-,4,mask0.bmp,200,255,255,1,578,155,Handle 63 _Odd_Left,Fast_novel,standard.wav
1,Control,03/04/2014,UMEA Lab,15,2,2,24,male,right,practice,standardS_,Sound,100,0,NA,-,1,mask0.bmp,200,62,63,0,670,148,Handle 63 _Odd_Left,Fast_novel,standard.wav
1,Control,03/04/2014,UMEA Lab,16,2,2,24,male,right,practice,standardS_,Sound,100,0,NA,-,3,mask0.bmp,200,63,63,1,578,140,Handle 63 _Odd_Left,Fast_novel,standard.wav
1,Control,03/04/2014,UMEA Lab,121,2,2,24,male,right,standardS_,Standard,Sound,100,0,NA,-,8,mask0.bmp,200,255,255,1,521,148,Handle 63 _Odd_Left,Fast_novel,standard.wav
1,Control,03/04/2014,UMEA Lab,122,2,2,24,male,right,novelS_,Novel,Sound,100,0,NA,-,4,mask0.bmp,200,255,255,1,501,146,Handle 63 _Odd_Left,Fast_novel,novel.wav
1,Control,03/04/2014,UMEA Lab,123,2,2,24,male,right,standardS_,Standard,Sound,100,0,NA,-,6,mask0.bmp,200,255,255,1,425,126,Handle 63 _Odd_Left,Fast_novel,standard.wav
1,Control,03/04/2014,UMEA Lab,124,2,2,24,male,right,standardS_,Standard,Sound,100,0,NA,-,8,mask0.bmp,200,255,255,1,431,136,Handle 63 _Odd_Left,Fast_novel,standard.wav
1,Control,03/04/2014,UMEA Lab,125,2,2,24,male,right,standardS_,Standard,Sound,100,0,NA,-,3,mask0.bmp,200,63,63,1,509,139,Handle 63 _Odd_Left,Fast_novel,standard.wav
1,Control,03/04/2014,UMEA Lab,126,2,2,24,male,right,novelS_,Novel,Sound,100,0,NA,-,4,mask0.bmp,200,255,255,1,485,136,Handle 63 _Odd_Left,Fast_novel,novel.wav
1,Control,03/04/2014,UMEA Lab,127,2,2,24,male,right,standardS_,Standard,Sound,100,0,NA,-,8,mask0.bmp,200,255,255,1,459,133,Handle 63 _Odd_Left,Fast_novel,standard.wav
1,Control,03/04/2014,UMEA Lab,128,2,2,24,male,right,standardS_,Standard,Sound,100,0,NA,-,3,mask0.bmp,200,63,63,1,454,137,Handle 63 _Odd_Left,Fast_novel,standard.wav
1,Control,03/04/2014,UMEA Lab,129,2,2,24,male,right,standardS_,Standard,Sound,100,0,NA,-,2,mask0.bmp,200,255,63,0,459,92,Handle 63 _Odd_Left,Fast_novel,standard.wav
1,Control,03/04/2014,UMEA Lab,130,2,2,24,male,right,standardS_,Standard,Sound,100,0,NA,-,4,mask0.bmp,200,255,63,0,542,121,Handle 63 _Odd_Left,Fast_novel,standard.wav
1,Control,03/04/2014,UMEA Lab,131,2,2,24,male,right,standardS_,Standard,Sound,100,0,NA,-,7,mask0.bmp,200,63,63,1,473,169,Handle 63 _Odd_Left,Fast_novel,standard.wav
1,Control,03/04/2014,UMEA Lab,132,2,2,24,male,right,novelS_,Novel,Sound,100,0,NA,-,2,mask0.bmp,200,255,255,1,548,180,Handle 63 _Odd_Left,Fast_novel,novel.wav
1,Control,03/04/2014,UMEA Lab,133,2,2,24,male,right,standardS_,Standard,Sound,100,0,NA,-,8,mask0.bmp,200,255,255,1,550,160,Handle 63 _Odd_Left,Fast_novel,standard.wav
1,Control,03/04/2014,UMEA Lab,134,2,2,24,male,right,standardS_,Standard,Sound,100,0,NA,-,6,mask0.bmp,200,255,255,1,490,146,Handle 63 _Odd_Left,Fast_novel,standard.wav
1,Control,03/04/2014,UMEA Lab,135,2,2,24,male,right,standardS_,Standard,Sound,100,0,NA,-,2,mask0.bmp,200,255,63,0,482,204,Handle 63 _Odd_Left,Fast_novel,standard.wav
1,Control,03/04/2014,UMEA Lab,136,2,2,24,male,right,standardS_,Standard,Sound,100,0,NA,-,6,mask0.bmp,200,255,255,1,498,141,Handle 63 _Odd_Left,Fast_novel,standard.wav
1,Control,03/04/2014,UMEA Lab,137,2,2,24,male,right,novelS_,Novel,Sound,100,0,NA,-,3,mask0.bmp,200,63,63,1,629,185,Handle 63 _Odd_Left,Fast_novel,novel.wav
1,Control,03/04/2014,UMEA Lab,138,2,2,24,male,right,standardS_,Standard,Sound,100,0,NA,-,1,mask0.bmp,200,63,63,1,617,156,Handle 63 _Odd_Left,Fast_novel,standard.wav
1,Control,03/04/2014,UMEA Lab,139,2,2,24,male,right,standardS_,Standard,Sound,100,0,NA,-,4,mask0.bmp,200,255,255,1,489,176,Handle 63 _Odd_Left,Fast_novel,standard.wav
1,Control,03/04/2014,UMEA Lab,140,2,2,24,male,right,standardS_,Standard,Sound,100,0,NA,-,3,mask0.bmp,200,63,63,1,541,209,Handle 63 _Odd_Left,Fast_novel,standard.wav
1,Control,03/04/2014,UMEA Lab,141,2,2,24,male,right,novelS_,Novel,Sound,100,0,NA,-,4,mask0.bmp,200,255,255,1,577,155,Handle 63 _Odd_Left,Fast_novel,novel.wav
1,Control,03/04/2014,UMEA Lab,142,2,2,24,male,right,standardS_,Standard,Sound,100,0,NA,-,1,mask0.bmp,200,63,63,1,494,210,Handle 63 _Odd_Left,Fast_novel,standard.wav
1,Control,03/04/2014,UMEA Lab,143,2,2,24,male,right,standardS_,Standard,Sound,100,0,NA,-,6,mask0.bmp,200,255,255,1,463,147,Handle 63 _Odd_Left,Fast_novel,standard.wav
1,Control,03/04/2014,UMEA Lab,144,2,2,24,male,right,novelS_,Novel,Sound,100,0,NA,-,2,mask0.bmp,200,255,255,1,491,130,Handle 63 _Odd_Left,Fast_novel,novel.wav
1,Control,03/04/2014,UMEA Lab,145,2,2,24,male,right,standardS_,Standard,Sound,100,0,NA,-,8,mask0.bmp,200,255,255,1,416,127,Handle 63 _Odd_Left,Fast_novel,standard.wav
1,Control,03/04/2014,UMEA Lab,146,2,2,24,male,right,standardS_,Standard,Sound,100,0,NA,-,7,mask0.bmp,200,63,63,1,399,107,Handle 63 _Odd_Left,Fast_novel,standard.wav
1,Control,03/04/2014,UMEA Lab,147,2,2,24,male,right,standardS_,Standard,Sound,100,0,NA,-,8,mask0.bmp,200,255,255,1,428,129,Handle 63 _Odd_Left,Fast_novel,standard.wav
1,Control,03/04/2014,UMEA Lab,148,2,2,24,male,right,standardS_,Standard,Sound,100,0,NA,-,6,mask0.bmp,200,255,255,1,442,136,Handle 63 _Odd_Left,Fast_novel,standard.wav
1,Control,03/04/2014,UMEA Lab,149,2,2,24,male,right,novelS_,Novel,Sound,100,0,NA,-,4,mask0.bmp,200,255,255,1,549,137,Handle 63 _Odd_Left,Fast_novel,novel.wav
1,Control,03/04/2014,UMEA Lab,150,2,2,24,male,right,standardS_,Standard,Sound,100,0,NA,-,7,mask0.bmp,200,63,63,1,562,141,Handle 63 _Odd_Left,Fast_novel,standard.wav
1,Control,03/04/2014,UMEA Lab,151,2,2,24,male,right,standardS_,Standard,Sound,100,0,NA,-,6,mask0.bmp,200,255,255,1,642,147,Handle 63 _Odd_Left,Fast_novel,standard.wav
1,Control,03/04/2014,UMEA Lab,152,2,2,24,male,right,standardS_,Standard,Sound,100,0,NA,-,4,mask0.bmp,200,255,255,1,455,135,Handle 63 _Odd_Left,Fast_novel,standard.wav
1,Control,03/04/2014,UMEA Lab,153,2,2,24,male,right,standardS_,Standard,Sound,100,0,NA,-,1,mask0.bmp,200,63,255,0,482,135,Handle 63 _Odd_Left,Fast_novel,standard.wav
1,Control,03/04/2014,UMEA Lab,154,2,2,24,male,right,novelS_,Novel,Sound,100,0,NA,-,3,mask0.bmp,200,63,255,0,490,170,Handle 63 _Odd_Left,Fast_novel,novel.wav
1,Control,03/04/2014,UMEA Lab,155,2,2,24,male,right,standardS_,Standard,Sound,100,0,NA,-,6,mask0.bmp,200,255,255,1,554,159,Handle 63 _Odd_Left,Fast_novel,standard.wav
1,Control,03/04/2014,UMEA Lab,156,2,2,24,male,right,standardS_,Standard,Sound,100,0,NA,-,5,mask0.bmp,200,63,63,1,542,144,Handle 63 _Odd_Left,Fast_novel,standard.wav
1,Control,03/04/2014,UMEA Lab,157,2,2,24,male,right,standardS_,Standard,Sound,100,0,NA,-,6,mask0.bmp,200,255,255,1,396,163,Handle 63 _Odd_Left,Fast_novel,standard.wav
1,Control,03/04/2014,UMEA Lab,158,2,2,24,male,right,standardS_,Standard,Sound,100,0,NA,-,4,mask0.bmp,200,255,63,0,426,147,Handle 63 _Odd_Left,Fast_novel,standard.wav
1,Control,03/04/2014,UMEA Lab,159,2,2,24,male,right,novelS_,Novel,Sound,100,0,NA,-,3,mask0.bmp,200,63,63,1,580,155,Handle 63 _Odd_Left,Fast_novel,novel.wav
1,Control,03/04/2014,UMEA Lab,160,2,2,24,male,right,standardS_,Standard,Sound,100,0,NA,-,5,mask0.bmp,200,63,255,0,416,150,Handle 63 _Odd_Left,Fast_novel,standard.wav
1,Control,03/04/2014,UMEA Lab,161,2,2,24,male,right,standardS_,Standard,Sound,100,0,NA,-,7,mask0.bmp,200,63,255,0,502,105,Handle 63 _Odd_Left,Fast_novel,standard.wav
1,Control,03/04/2014,UMEA Lab,162,2,2,24,male,right,standardS_,Standard,Sound,100,0,NA,-,8,mask0.bmp,200,255,255,1,523,147,Handle 63 _Odd_Left,Fast_novel,standard.wav
1,Control,03/04/2014,UMEA Lab,163,2,2,24,male,right,novelS_,Novel,Sound,100,0,NA,-,1,mask0.bmp,200,63,63,1,554,166,Handle 63 _Odd_Left,Fast_novel,novel.wav
1,Control,03/04/2014,UMEA Lab,164,2,2,24,male,right,standardS_,Standard,Sound,100,0,NA,-,2,mask0.bmp,200,255,255,1,403,133,Handle 63 _Odd_Left,Fast_novel,standard.wav
1,Control,03/04/2014,UMEA Lab,165,2,2,24,male,right,standardS_,Standard,Sound,100,0,NA,-,1,mask0.bmp,200,63,63,1,433,139,Handle 63 _Odd_Left,Fast_novel,standard.wav
1,Control,03/04/2014,UMEA Lab,166,2,2,24,male,right,novelS_,Novel,Sound,100,0,NA,-,2,mask0.bmp,200,255,255,1,581,183,Handle 63 _Odd_Left,Fast_novel,novel.wav
1,Control,03/04/2014,UMEA Lab,167,2,2,24,male,right,standardS_,Standard,Sound,100,0,NA,-,8,mask0.bmp,200,255,255,1,498,157,Handle 63 _Odd_Left,Fast_novel,standard.wav
1,Control,03/04/2014,UMEA Lab,168,2,2,24,male,right,standardS_,Standard,Sound,100,0,NA,-,4,mask0.bmp,200,255,63,0,449,223,Handle 63 _Odd_Left,Fast_novel,standard.wav
1,Control,03/04/2014,UMEA Lab,169,2,2,24,male,right,standardS_,Standard,Sound,100,0,NA,-,5,mask0.bmp,200,63,255,0,517,137,Handle 63 _Odd_Left,Fast_novel,standard.wav
1,Control,03/04/2014,UMEA Lab,170,2,2,24,male,right,standardS_,Standard,Sound,100,0,NA,-,7,mask0.bmp,200,63,63,1,498,151,Handle 63 _Odd_Left,Fast_novel,standard.wav
1,Control,03/04/2014,UMEA Lab,171,2,2,24,male,right,standardS_,Standard,Sound,100,0,NA,-,8,mask0.bmp,200,255,255,1,498,135,Handle 63 _Odd_Left,Fast_novel,standard.wav
1,Control,03/04/2014,UMEA Lab,172,2,2,24,male,right,standardS_,Standard,Sound,100,0,NA,-,5,mask0.bmp,200,63,63,1,471,222,Handle 63 _Odd_Left,Fast_novel,standard.wav
1,Control,03/04/2014,UMEA Lab,173,2,2,24,male,right,standardS_,Standard,Sound,100,0,NA,-,1,mask0.bmp,200,63,255,0,509,151,Handle 63 _Odd_Left,Fast_novel,standard.wav
1,Control,03/04/2014,UMEA Lab,174,2,2,24,male,right,novelS_,Novel,Sound,100,0,NA,-,6,mask0.bmp,200,255,255,1,493,138,Handle 63 _Odd_Left,Fast_novel,novel.wav
1,Control,03/04/2014,UMEA Lab,175,2,2,24,male,right,standardS_,Standard,Sound,100,0,NA,-,5,mask0.bmp,200,63,63,1,573,163,Handle 63 _Odd_Left,Fast_novel,standard.wav
1,Control,03/04/2014,UMEA Lab,176,2,2,24,male,right,standardS_,Standard,Sound,100,0,NA,-,7,mask0.bmp,200,63,255,0,466,150,Handle 63 _Odd_Left,Fast_novel,standard.wav
1,Control,03/04/2014,UMEA Lab,177,2,2,24,male,right,novelS_,Novel,Sound,100,0,NA,-,2,mask0.bmp,200,255,255,1,538,198,Handle 63 _Odd_Left,Fast_novel,novel.wav
1,Control,03/04/2014,UMEA Lab,178,2,2,24,male,right,standardS_,Standard,Sound,100,0,NA,-,3,mask0.bmp,200,63,63,1,516,157,Handle 63 _Odd_Left,Fast_novel,standard.wav
1,Control,03/04/2014,UMEA Lab,179,2,2,24,male,right,standardS_,Standard,Sound,100,0,NA,-,7,mask0.bmp,200,63,63,1,503,177,Handle 63 _Odd_Left,Fast_novel,standard.wav
1,Control,03/04/2014,UMEA Lab,180,2,2,24,male,right,standardS_,Standard,Sound,100,0,NA,-,1,mask0.bmp,200,63,255,0,456,142,Handle 63 _Odd_Left,Fast_novel,standard.wav
1,Control,03/04/2014,UMEA Lab,181,2,2,24,male,right,standardS_,Standard,Sound,100,0,NA,-,8,mask0.bmp,200,255,255,1,550,204,Handle 63 _Odd_Left,Fast_novel,standard.wav
1,Control,03/04/2014,UMEA Lab,182,2,2,24,male,right,novelS_,Novel,Sound,100,0,NA,-,7,mask0.bmp,200,63,63,1,508,226,Handle 63 _Odd_Left,Fast_novel,novel.wav
1,Control,03/04/2014,UMEA Lab,183,2,2,24,male,right,standardS_,Standard,Sound,100,0,NA,-,4,mask0.bmp,200,255,63,0,571,229,Handle 63 _Odd_Left,Fast_novel,standard.wav
1,Control,03/04/2014,UMEA Lab,184,2,2,24,male,right,standardS_,Standard,Sound,100,0,NA,-,1,mask0.bmp,200,63,63,1,566,229,Handle 63 _Odd_Left,Fast_novel,standard.wav
1,Control,03/04/2014,UMEA Lab,185,2,2,24,male,right,novelS_,Novel,Sound,100,0,NA,-,3,mask0.bmp,200,63,255,0,519,136,Handle 63 _Odd_Left,Fast_novel,novel.wav
1,Control,03/04/2014,UMEA Lab,186,2,2,24,male,right,standardS_,Standard,Sound,100,0,NA,-,5,mask0.bmp,200,63,63,1,618,185,Handle 63 _Odd_Left,Fast_novel,standard.wav
1,Control,03/04/2014,UMEA Lab,187,2,2,24,male,right,standardS_,Standard,Sound,100,0,NA,-,2,mask0.bmp,200,255,255,1,433,159,Handle 63 _Odd_Left,Fast_novel,standard.wav
1,Control,03/04/2014,UMEA Lab,188,2,2,24,male,right,standardS_,Standard,Sound,100,0,NA,-,3,mask0.bmp,200,63,63,1,443,206,Handle 63 _Odd_Left,Fast_novel,standard.wav
1,Control,03/04/2014,UMEA Lab,189,2,2,24,male,right,standardS_,Standard,Sound,100,0,NA,-,6,mask0.bmp,200,255,255,1,554,184,Handle 63 _Odd_Left,Fast_novel,standard.wav
1,Control,03/04/2014,UMEA Lab,190,2,2,24,male,right,novelS_,Novel,Sound,100,0,NA,-,5,mask0.bmp,200,63,63,1,497,182,Handle 63 _Odd_Left,Fast_novel,novel.wav
1,Control,03/04/2014,UMEA Lab,191,2,2,24,male,right,standardS_,Standard,Sound,100,0,NA,-,7,mask0.bmp,200,63,63,1,481,207,Handle 63 _Odd_Left,Fast_novel,standard.wav
1,Control,03/04/2014,UMEA Lab,192,2,2,24,male,right,standardS_,Standard,Sound,100,0,NA,-,8,mask0.bmp,200,255,255,1,481,153,Handle 63 _Odd_Left,Fast_novel,standard.wav
1,Control,03/04/2014,UMEA Lab,193,2,2,24,male,right,standardS_,Standard,Sound,100,0,NA,-,4,mask0.bmp,200,255,63,0,542,248,Handle 63 _Odd_Left,Fast_novel,standard.wav
1,Control,03/04/2014,UMEA Lab,194,2,2,24,male,right,novelS_,Novel,Sound,100,0,NA,-,5,mask0.bmp,200,63,63,1,497,202,Handle 63 _Odd_Left,Fast_novel,novel.wav
1,Control,03/04/2014,UMEA Lab,195,2,2,24,male,right,standardS_,Standard,Sound,100,0,NA,-,6,mask0.bmp,200,255,63,0,562,256,Handle 63 _Odd_Left,Fast_novel,standard.wav
1,Control,03/04/2014,UMEA Lab,196,2,2,24,male,right,standardS_,Standard,Sound,100,0,NA,-,5,mask0.bmp,200,63,63,1,467,209,Handle 63 _Odd_Left,Fast_novel,standard.wav
1,Control,03/04/2014,UMEA Lab,197,2,2,24,male,right,standardS_,Standard,Sound,100,0,NA,-,4,mask0.bmp,200,255,255,1,416,115,Handle 63 _Odd_Left,Fast_novel,standard.wav
1,Control,03/04/2014,UMEA Lab,198,2,2,24,male,right,standardS_,Standard,Sound,100,0,NA,-,5,mask0.bmp,200,63,63,1,491,146,Handle 63 _Odd_Left,Fast_novel,standard.wav
1,Control,03/04/2014,UMEA Lab,199,2,2,24,male,right,novelS_,Novel,Sound,100,0,NA,-,2,mask0.bmp,200,255,63,0,536,266,Handle 63 _Odd_Left,Fast_novel,novel.wav
1,Control,03/04/2014,UMEA Lab,200,2,2,24,male,right,standardS_,Standard,Sound,100,0,NA,-,5,mask0.bmp,200,63,63,1,575,185,Handle 63 _Odd_Left,Fast_novel,standard.wav
1,Control,03/04/2014,UMEA Lab,201,2,2,24,male,right,standardS_,Standard,Sound,100,0,NA,-,3,mask0.bmp,200,63,255,0,498,117,Handle 63 _Odd_Left,Fast_novel,standard.wav
1,Control,03/04/2014,UMEA Lab,202,2,2,24,male,right,novelS_,Novel,Sound,100,0,NA,-,1,mask0.bmp,200,63,63,1,651,212,Handle 63 _Odd_Left,Fast_novel,novel.wav
1,Control,03/04/2014,UMEA Lab,203,2,2,24,male,right,standardS_,Standard,Sound,100,0,NA,-,7,mask0.bmp,200,63,255,0,451,169,Handle 63 _Odd_Left,Fast_novel,standard.wav
1,Control,03/04/2014,UMEA Lab,204,2,2,24,male,right,standardS_,Standard,Sound,100,0,NA,-,5,mask0.bmp,200,63,63,1,512,142,Handle 63 _Odd_Left,Fast_novel,standard.wav
1,Control,03/04/2014,UMEA Lab,205,2,2,24,male,right,novelS_,Novel,Sound,100,0,NA,-,2,mask0.bmp,200,255,255,1,476,163,Handle 63 _Odd_Left,Fast_novel,novel.wav
1,Control,03/04/2014,UMEA Lab,206,2,2,24,male,right,standardS_,Standard,Sound,100,0,NA,-,3,mask0.bmp,200,63,63,1,476,240,Handle 63 _Odd_Left,Fast_novel,standard.wav
1,Control,03/04/2014,UMEA Lab,207,2,2,24,male,right,standardS_,Standard,Sound,100,0,NA,-,8,mask0.bmp,200,255,63,0,405,125,Handle 63 _Odd_Left,Fast_novel,standard.wav
1,Control,03/04/2014,UMEA Lab,208,2,2,24,male,right,standardS_,Standard,Sound,100,0,NA,-,1,mask0.bmp,200,63,63,1,499,172,Handle 63 _Odd_Left,Fast_novel,standard.wav
1,Control,03/04/2014,UMEA Lab,209,2,2,24,male,right,standardS_,Standard,Sound,100,0,NA,-,7,mask0.bmp,200,63,255,0,479,154,Handle 63 _Odd_Left,Fast_novel,standard.wav
1,Control,03/04/2014,UMEA Lab,210,2,2,24,male,right,standardS_,Standard,Sound,100,0,NA,-,1,mask0.bmp,200,63,63,1,483,157,Handle 63 _Odd_Left,Fast_novel,standard.wav
1,Control,03/04/2014,UMEA Lab,211,2,2,24,male,right,standardS_,Standard,Sound,100,0,NA,-,3,mask0.bmp,200,63,255,0,442,153,Handle 63 _Odd_Left,Fast_novel,standard.wav
1,Control,03/04/2014,UMEA Lab,212,2,2,24,male,right,standardS_,Standard,Sound,100,0,NA,-,1,mask0.bmp,200,63,63,1,507,234,Handle 63 _Odd_Left,Fast_novel,standard.wav
1,Control,03/04/2014,UMEA Lab,213,2,2,24,male,right,standardS_,Standard,Sound,100,0,NA,-,2,mask0.bmp,200,255,63,0,483,132,Handle 63 _Odd_Left,Fast_novel,standard.wav
1,Control,03/04/2014,UMEA Lab,214,2,2,24,male,right,standardS_,Standard,Sound,100,0,NA,-,5,mask0.bmp,200,63,255,0,514,140,Handle 63 _Odd_Left,Fast_novel,standard.wav
1,Control,03/04/2014,UMEA Lab,215,2,2,24,male,right,standardS_,Standard,Sound,100,0,NA,-,3,mask0.bmp,200,63,63,1,571,162,Handle 63 _Odd_Left,Fast_novel,standard.wav
1,Control,03/04/2014,UMEA Lab,216,2,2,24,male,right,novelS_,Novel,Sound,100,0,NA,-,8,mask0.bmp,200,255,255,1,473,155,Handle 63 _Odd_Left,Fast_novel,novel.wav
1,Control,03/04/2014,UMEA Lab,217,2,2,24,male,right,standardS_,Standard,Sound,100,0,NA,-,4,mask0.bmp,200,255,255,1,522,195,Handle 63 _Odd_Left,Fast_novel,standard.wav
1,Control,03/04/2014,UMEA Lab,218,2,2,24,male,right,standardS_,Standard,Sound,100,0,NA,-,5,mask0.bmp,200,63,63,1,492,184,Handle 63 _Odd_Left,Fast_novel,standard.wav
1,Control,03/04/2014,UMEA Lab,219,2,2,24,male,right,standardS_,Standard,Sound,100,0,NA,-,1,mask0.bmp,200,63,63,1,574,186,Handle 63 _Odd_Left,Fast_novel,standard.wav
1,Control,03/04/2014,UMEA Lab,220,2,2,24,male,right,standardS_,Standard,Sound,100,0,NA,-,7,mask0.bmp,200,63,63,1,627,170,Handle 63 _Odd_Left,Fast_novel,standard.wav
1,Control,03/04/2014,UMEA Lab,221,2,2,24,male,right,standardS_,Standard,Sound,100,0,NA,-,2,mask0.bmp,200,255,255,1,535,163,Handle 63 _Odd_Left,Fast_novel,standard.wav
1,Control,03/04/2014,UMEA Lab,222,2,2,24,male,right,standardS_,Standard,Sound,100,0,NA,-,3,mask0.bmp,200,63,63,1,446,212,Handle 63 _Odd_Left,Fast_novel,standard.wav
1,Control,03/04/2014,UMEA Lab,223,2,2,24,male,right,standardS_,Standard,Sound,100,0,NA,-,4,mask0.bmp,200,255,255,1,499,166,Handle 63 _Odd_Left,Fast_novel,standard.wav
1,Control,03/04/2014,UMEA Lab,224,2,2,24,male,right,standardS_,Standard,Sound,100,0,NA,-,1,mask0.bmp,200,63,63,1,478,151,Handle 63 _Odd_Left,Fast_novel,standard.wav
1,Control,03/04/2014,UMEA Lab,225,2,2,24,male,right,novelS_,Novel,Sound,100,0,NA,-,6,mask0.bmp,200,255,255,1,526,186,Handle 63 _Odd_Left,Fast_novel,novel.wav
1,Control,03/04/2014,UMEA Lab,226,2,2,24,male,right,standardS_,Standard,Sound,100,0,NA,-,7,mask0.bmp,200,63,63,1,480,158,Handle 63 _Odd_Left,Fast_novel,standard.wav
1,Control,03/04/2014,UMEA Lab,227,2,2,24,male,right,standardS_,Standard,Sound,100,0,NA,-,4,mask0.bmp,200,255,255,1,576,241,Handle 63 _Odd_Left,Fast_novel,standard.wav
1,Control,03/04/2014,UMEA Lab,228,2,2,24,male,right,standardS_,Standard,Sound,100,0,NA,-,1,mask0.bmp,200,63,63,1,573,144,Handle 63 _Odd_Left,Fast_novel,standard.wav
1,Control,03/04/2014,UMEA Lab,229,2,2,24,male,right,standardS_,Standard,Sound,100,0,NA,-,6,mask0.bmp,200,255,255,1,562,199,Handle 63 _Odd_Left,Fast_novel,standard.wav
1,Control,03/04/2014,UMEA Lab,230,2,2,24,male,right,novelS_,Novel,Sound,100,0,NA,-,2,mask0.bmp,200,255,255,1,509,161,Handle 63 _Odd_Left,Fast_novel,novel.wav
1,Control,03/04/2014,UMEA Lab,231,2,2,24,male,right,standardS_,Standard,Sound,100,0,NA,-,7,mask0.bmp,200,63,63,1,452,149,Handle 63 _Odd_Left,Fast_novel,standard.wav
1,Control,03/04/2014,UMEA Lab,232,2,2,24,male,right,standardS_,Standard,Sound,100,0,NA,-,3,mask0.bmp,200,63,63,1,446,140,Handle 63 _Odd_Left,Fast_novel,standard.wav
1,Control,03/04/2014,UMEA Lab,233,2,2,24,male,right,standardS_,Standard,Sound,100,0,NA,-,2,mask0.bmp,200,255,255,1,465,168,Handle 63 _Odd_Left,Fast_novel,standard.wav
1,Control,03/04/2014,UMEA Lab,234,2,2,24,male,right,standardS_,Standard,Sound,100,0,NA,-,6,mask0.bmp,200,255,255,1,439,150,Handle 63 _Odd_Left,Fast_novel,standard.wav
1,Control,03/04/2014,UMEA Lab,235,2,2,24,male,right,novelS_,Novel,Sound,100,0,NA,-,5,mask0.bmp,200,63,63,1,551,199,Handle 63 _Odd_Left,Fast_novel,novel.wav
1,Control,03/04/2014,UMEA Lab,236,2,2,24,male,right,standardS_,Standard,Sound,100,0,NA,-,6,mask0.bmp,200,255,255,1,427,176,Handle 63 _Odd_Left,Fast_novel,standard.wav
1,Control,03/04/2014,UMEA Lab,237,2,2,24,male,right,standardS_,Standard,Sound,100,0,NA,-,2,mask0.bmp,200,255,255,1,512,179,Handle 63 _Odd_Left,Fast_novel,standard.wav
1,Control,03/04/2014,UMEA Lab,238,2,2,24,male,right,standardS_,Standard,Sound,100,0,NA,-,8,mask0.bmp,200,255,255,1,473,188,Handle 63 _Odd_Left,Fast_novel,standard.wav
1,Control,03/04/2014,UMEA Lab,239,2,2,24,male,right,standardS_,Standard,Sound,100,0,NA,-,7,mask0.bmp,200,63,63,1,492,191,Handle 63 _Odd_Left,Fast_novel,standard.wav
1,Control,03/04/2014,UMEA Lab,240,2,2,24,male,right,standardS_,Standard,Sound,100,0,NA,-,8,mask0.bmp,200,255,255,1,433,188,Handle 63 _Odd_Left,Fast_novel,standard.wav
1,Control,03/04/2014,UMEA Lab,17,3,3,24,male,right,practice,standardS_,Sound,100,0,NA,-,8,mask0.bmp,200,255,255,1,480,193,Handle 63 _Odd_Left,Fast_novel,standard.wav
1,Control,03/04/2014,UMEA Lab,18,3,3,24,male,right,practice,standardS_,Sound,100,0,NA,-,6,mask0.bmp,200,255,63,0,429,146,Handle 63 _Odd_Left,Fast_novel,standard.wav
1,Control,03/04/2014,UMEA Lab,19,3,3,24,male,right,practice,standardS_,Sound,100,0,NA,-,1,mask0.bmp,200,62,63,0,532,204,Handle 63 _Odd_Left,Fast_novel,standard.wav
1,Control,03/04/2014,UMEA Lab,20,3,3,24,male,right,practice,standardS_,Sound,100,0,NA,-,7,mask0.bmp,200,63,255,0,480,128,Handle 63 _Odd_Left,Fast_novel,standard.wav
1,Control,03/04/2014,UMEA Lab,21,3,3,24,male,right,practice,standardS_,Sound,100,0,NA,-,3,mask0.bmp,200,63,63,1,502,169,Handle 63 _Odd_Left,Fast_novel,standard.wav
1,Control,03/04/2014,UMEA Lab,22,3,3,24,male,right,practice,standardS_,Sound,100,0,NA,-,2,mask0.bmp,200,255,255,1,453,193,Handle 63 _Odd_Left,Fast_novel,standard.wav
1,Control,03/04/2014,UMEA Lab,23,3,3,24,male,right,practice,standardS_,Sound,100,0,NA,-,5,mask0.bmp,200,63,255,0,466,128,Handle 63 _Odd_Left,Fast_novel,standard.wav
1,Control,03/04/2014,UMEA Lab,24,3,3,24,male,right,practice,standardS_,Sound,100,0,NA,-,4,mask0.bmp,200,255,63,0,466,181,Handle 63 _Odd_Left,Fast_novel,standard.wav
1,Control,03/04/2014,UMEA Lab,241,3,3,24,male,right,novelS_,Novel,Sound,100,0,NA,-,2,mask0.bmp,200,255,255,1,608,212,Handle 63 _Odd_Left,Fast_novel,novel.wav
1,Control,03/04/2014,UMEA Lab,242,3,3,24,male,right,standardS_,Standard,Sound,100,0,NA,-,8,mask0.bmp,200,255,255,1,473,198,Handle 63 _Odd_Left,Fast_novel,standard.wav
1,Control,03/04/2014,UMEA Lab,243,3,3,24,male,right,standardS_,Standard,Sound,100,0,NA,-,6,mask0.bmp,200,255,63,0,492,221,Handle 63 _Odd_Left,Fast_novel,standard.wav
1,Control,03/04/2014,UMEA Lab,244,3,3,24,male,right,novelS_,Novel,Sound,100,0,NA,-,2,mask0.bmp,200,255,63,0,467,222,Handle 63 _Odd_Left,Fast_novel,novel.wav
1,Control,03/04/2014,UMEA Lab,245,3,3,24,male,right,standardS_,Standard,Sound,100,0,NA,-,1,mask0.bmp,200,63,255,0,505,139,Handle 63 _Odd_Left,Fast_novel,standard.wav
1,Control,03/04/2014,UMEA Lab,246,3,3,24,male,right,standardS_,Standard,Sound,100,0,NA,-,6,mask0.bmp,200,255,255,1,476,203,Handle 63 _Odd_Left,Fast_novel,standard.wav
1,Control,03/04/2014,UMEA Lab,247,3,3,24,male,right,novelS_,Novel,Sound,100,0,NA,-,7,mask0.bmp,200,63,63,1,529,207,Handle 63 _Odd_Left,Fast_novel,novel.wav
1,Control,03/04/2014,UMEA Lab,248,3,3,24,male,right,standardS_,Standard,Sound,100,0,NA,-,1,mask0.bmp,200,63,255,0,469,134,Handle 63 _Odd_Left,Fast_novel,standard.wav
1,Control,03/04/2014,UMEA Lab,249,3,3,24,male,right,standardS_,Standard,Sound,100,0,NA,-,4,mask0.bmp,200,255,255,1,452,196,Handle 63 _Odd_Left,Fast_novel,standard.wav
1,Control,03/04/2014,UMEA Lab,250,3,3,24,male,right,standardS_,Standard,Sound,100,0,NA,-,3,mask0.bmp,200,63,63,1,613,184,Handle 63 _Odd_Left,Fast_novel,standard.wav
1,Control,03/04/2014,UMEA Lab,251,3,3,24,male,right,standardS_,Standard,Sound,100,0,NA,-,8,mask0.bmp,200,255,255,1,528,216,Handle 63 _Odd_Left,Fast_novel,standard.wav
1,Control,03/04/2014,UMEA Lab,252,3,3,24,male,right,standardS_,Standard,Sound,100,0,NA,-,7,mask0.bmp,200,63,63,1,516,216,Handle 63 _Odd_Left,Fast_novel,standard.wav
1,Control,03/04/2014,UMEA Lab,253,3,3,24,male,right,novelS_,Novel,Sound,100,0,NA,-,1,mask0.bmp,200,63,63,1,598,181,Handle 63 _Odd_Left,Fast_novel,novel.wav
1,Control,03/04/2014,UMEA Lab,254,3,3,24,male,right,standardS_,Standard,Sound,100,0,NA,-,4,mask0.bmp,200,255,255,1,581,197,Handle 63 _Odd_Left,Fast_novel,standard.wav
1,Control,03/04/2014,UMEA Lab,255,3,3,24,male,right,standardS_,Standard,Sound,100,0,NA,-,3,mask0.bmp,200,63,63,1,515,197,Handle 63 _Odd_Left,Fast_novel,standard.wav
1,Control,03/04/2014,UMEA Lab,256,3,3,24,male,right,novelS_,Novel,Sound,100,0,NA,-,6,mask0.bmp,200,255,255,1,595,205,Handle 63 _Odd_Left,Fast_novel,novel.wav
1,Control,03/04/2014,UMEA Lab,257,3,3,24,male,right,standardS_,Standard,Sound,100,0,NA,-,7,mask0.bmp,200,63,63,1,466,201,Handle 63 _Odd_Left,Fast_novel,standard.wav
1,Control,03/04/2014,UMEA Lab,258,3,3,24,male,right,standardS_,Standard,Sound,100,0,NA,-,6,mask0.bmp,200,255,255,1,597,192,Handle 63 _Odd_Left,Fast_novel,standard.wav
1,Control,03/04/2014,UMEA Lab,259,3,3,24,male,right,standardS_,Standard,Sound,100,0,NA,-,1,mask0.bmp,200,63,63,1,604,202,Handle 63 _Odd_Left,Fast_novel,standard.wav
1,Control,03/04/2014,UMEA Lab,260,3,3,24,male,right,novelS_,Novel,Sound,100,0,NA,-,6,mask0.bmp,200,255,255,1,513,218,Handle 63 _Odd_Left,Fast_novel,novel.wav
1,Control,03/04/2014,UMEA Lab,261,3,3,24,male,right,standardS_,Standard,Sound,100,0,NA,-,7,mask0.bmp,200,63,63,1,552,214,Handle 63 _Odd_Left,Fast_novel,standard.wav
1,Control,03/04/2014,UMEA Lab,262,3,3,24,male,right,standardS_,Standard,Sound,100,0,NA,-,4,mask0.bmp,200,255,255,1,500,185,Handle 63 _Odd_Left,Fast_novel,standard.wav
1,Control,03/04/2014,UMEA Lab,263,3,3,24,male,right,standardS_,Standard,Sound,100,0,NA,-,1,mask0.bmp,200,63,63,1,520,174,Handle 63 _Odd_Left,Fast_novel,standard.wav
1,Control,03/04/2014,UMEA Lab,264,3,3,24,male,right,novelS_,Novel,Sound,100,0,NA,-,2,mask0.bmp,200,255,255,1,558,186,Handle 63 _Odd_Left,Fast_novel,novel.wav
1,Control,03/04/2014,UMEA Lab,265,3,3,24,male,right,standardS_,Standard,Sound,100,0,NA,-,5,mask0.bmp,200,63,63,1,482,203,Handle 63 _Odd_Left,Fast_novel,standard.wav
1,Control,03/04/2014,UMEA Lab,266,3,3,24,male,right,standardS_,Standard,Sound,100,0,NA,-,2,mask0.bmp,200,255,63,0,449,82,Handle 63 _Odd_Left,Fast_novel,standard.wav
1,Control,03/04/2014,UMEA Lab,267,3,3,24,male,right,standardS_,Standard,Sound,100,0,NA,-,4,mask0.bmp,200,255,255,1,602,187,Handle 63 _Odd_Left,Fast_novel,standard.wav
1,Control,03/04/2014,UMEA Lab,268,3,3,24,male,right,standardS_,Standard,Sound,100,0,NA,-,5,mask0.bmp,200,63,63,1,551,211,Handle 63 _Odd_Left,Fast_novel,standard.wav
1,Control,03/04/2014,UMEA Lab,269,3,3,24,male,right,standardS_,Standard,Sound,100,0,NA,-,3,mask0.bmp,200,63,255,0,481,197,Handle 63 _Odd_Left,Fast_novel,standard.wav
1,Control,03/04/2014,UMEA Lab,270,3,3,24,male,right,standardS_,Standard,Sound,100,0,NA,-,2,mask0.bmp,200,255,255,1,494,190,Handle 63 _Odd_Left,Fast_novel,standard.wav
1,Control,03/04/2014,UMEA Lab,271,3,3,24,male,right,novelS_,Novel,Sound,100,0,NA,-,4,mask0.bmp,200,255,255,1,694,215,Handle 63 _Odd_Left,Fast_novel,novel.wav
1,Control,03/04/2014,UMEA Lab,272,3,3,24,male,right,standardS_,Standard,Sound,100,0,NA,-,6,mask0.bmp,200,255,255,1,489,185,Handle 63 _Odd_Left,Fast_novel,standard.wav
1,Control,03/04/2014,UMEA Lab,273,3,3,24,male,right,standardS_,Standard,Sound,100,0,NA,-,8,mask0.bmp,200,255,255,1,435,189,Handle 63 _Odd_Left,Fast_novel,standard.wav
1,Control,03/04/2014,UMEA Lab,274,3,3,24,male,right,standardS_,Standard,Sound,100,0,NA,-,7,mask0.bmp,200,63,63,1,556,187,Handle 63 _Odd_Left,Fast_novel,standard.wav
1,Control,03/04/2014,UMEA Lab,275,3,3,24,male,right,standardS_,Standard,Sound,100,0,NA,-,6,mask0.bmp,200,255,255,1,624,200,Handle 63 _Odd_Left,Fast_novel,standard.wav
1,Control,03/04/2014,UMEA Lab,276,3,3,24,male,right,standardS_,Standard,Sound,100,0,NA,-,5,mask0.bmp,200,63,63,1,615,213,Handle 63 _Odd_Left,Fast_novel,standard.wav
1,Control,03/04/2014,UMEA Lab,277,3,3,24,male,right,standardS_,Standard,Sound,100,0,NA,-,4,mask0.bmp,200,255,63,0,548,184,Handle 63 _Odd_Left,Fast_novel,standard.wav
1,Control,03/04/2014,UMEA Lab,278,3,3,24,male,right,novelS_,Novel,Sound,100,0,NA,-,8,mask0.bmp,200,255,255,1,607,207,Handle 63 _Odd_Left,Fast_novel,novel.wav
1,Control,03/04/2014,UMEA Lab,279,3,3,24,male,right,standardS_,Standard,Sound,100,0,NA,-,3,mask0.bmp,200,63,63,1,529,190,Handle 63 _Odd_Left,Fast_novel,standard.wav
1,Control,03/04/2014,UMEA Lab,280,3,3,24,male,right,standardS_,Standard,Sound,100,0,NA,-,4,mask0.bmp,200,255,63,0,518,144,Handle 63 _Odd_Left,Fast_novel,standard.wav
1,Control,03/04/2014,UMEA Lab,281,3,3,24,male,right,standardS_,Standard,Sound,100,0,NA,-,2,mask0.bmp,200,255,255,1,647,206,Handle 63 _Odd_Left,Fast_novel,standard.wav
1,Control,03/04/2014,UMEA Lab,282,3,3,24,male,right,standardS_,Standard,Sound,100,0,NA,-,7,mask0.bmp,200,63,63,1,577,198,Handle 63 _Odd_Left,Fast_novel,standard.wav
1,Control,03/04/2014,UMEA Lab,283,3,3,24,male,right,novelS_,Novel,Sound,100,0,NA,-,5,mask0.bmp,200,63,63,1,651,181,Handle 63 _Odd_Left,Fast_novel,novel.wav
1,Control,03/04/2014,UMEA Lab,284,3,3,24,male,right,standardS_,Standard,Sound,100,0,NA,-,2,mask0.bmp,200,255,255,1,535,192,Handle 63 _Odd_Left,Fast_novel,standard.wav
1,Control,03/04/2014,UMEA Lab,285,3,3,24,male,right,standardS_,Standard,Sound,100,0,NA,-,7,mask0.bmp,200,63,63,1,517,189,Handle 63 _Odd_Left,Fast_novel,standard.wav
1,Control,03/04/2014,UMEA Lab,286,3,3,24,male,right,standardS_,Standard,Sound,100,0,NA,-,6,mask0.bmp,200,255,255,1,495,194,Handle 63 _Odd_Left,Fast_novel,standard.wav
1,Control,03/04/2014,UMEA Lab,287,3,3,24,male,right,standardS_,Standard,Sound,100,0,NA,-,2,mask0.bmp,200,255,255,1,637,195,Handle 63 _Odd_Left,Fast_novel,standard.wav
1,Control,03/04/2014,UMEA Lab,288,3,3,24,male,right,standardS_,Standard,Sound,100,0,NA,-,6,mask0.bmp,200,255,255,1,522,206,Handle 63 _Odd_Left,Fast_novel,standard.wav
1,Control,03/04/2014,UMEA Lab,289,3,3,24,male,right,standardS_,Standard,Sound,100,0,NA,-,1,mask0.bmp,200,63,63,1,515,227,Handle 63 _Odd_Left,Fast_novel,standard.wav
1,Control,03/04/2014,UMEA Lab,290,3,3,24,male,right,standardS_,Standard,Sound,100,0,NA,-,8,mask0.bmp,200,255,255,1,552,203,Handle 63 _Odd_Left,Fast_novel,standard.wav
1,Control,03/04/2014,UMEA Lab,291,3,3,24,male,right,novelS_,Novel,Sound,100,0,NA,-,5,mask0.bmp,200,63,63,1,570,209,Handle 63 _Odd_Left,Fast_novel,novel.wav
1,Control,03/04/2014,UMEA Lab,292,3,3,24,male,right,standardS_,Standard,Sound,100,0,NA,-,4,mask0.bmp,200,255,255,1,750,187,Handle 63 _Odd_Left,Fast_novel,standard.wav
1,Control,03/04/2014,UMEA Lab,293,3,3,24,male,right,standardS_,Standard,Sound,100,0,NA,-,6,mask0.bmp,200,255,255,1,527,203,Handle 63 _Odd_Left,Fast_novel,standard.wav
1,Control,03/04/2014,UMEA Lab,294,3,3,24,male,right,novelS_,Novel,Sound,100,0,NA,-,1,mask0.bmp,200,63,63,1,616,228,Handle 63 _Odd_Left,Fast_novel,novel.wav
1,Control,03/04/2014,UMEA Lab,295,3,3,24,male,right,standardS_,Standard,Sound,100,0,NA,-,2,mask0.bmp,200,255,255,1,526,186,Handle 63 _Odd_Left,Fast_novel,standard.wav
1,Control,03/04/2014,UMEA Lab,296,3,3,24,male,right,standardS_,Standard,Sound,100,0,NA,-,3,mask0.bmp,200,63,63,1,441,188,Handle 63 _Odd_Left,Fast_novel,standard.wav
1,Control,03/04/2014,UMEA Lab,297,3,3,24,male,right,standardS_,Standard,Sound,100,0,NA,-,4,mask0.bmp,200,255,255,1,465,158,Handle 63 _Odd_Left,Fast_novel,standard.wav
1,Control,03/04/2014,UMEA Lab,298,3,3,24,male,right,standardS_,Standard,Sound,100,0,NA,-,1,mask0.bmp,200,63,63,1,576,193,Handle 63 _Odd_Left,Fast_novel,standard.wav
1,Control,03/04/2014,UMEA Lab,299,3,3,24,male,right,standardS_,Standard,Sound,100,0,NA,-,2,mask0.bmp,200,255,255,1,548,205,Handle 63 _Odd_Left,Fast_novel,standard.wav
1,Control,03/04/2014,UMEA Lab,300,3,3,24,male,right,standardS_,Standard,Sound,100,0,NA,-,6,mask0.bmp,200,255,255,1,544,203,Handle 63 _Odd_Left,Fast_novel,standard.wav
1,Control,03/04/2014,UMEA Lab,301,3,3,24,male,right,novelS_,Novel,Sound,100,0,NA,-,3,mask0.bmp,200,63,63,1,578,182,Handle 63 _Odd_Left,Fast_novel,novel.wav
1,Control,03/04/2014,UMEA Lab,302,3,3,24,male,right,standardS_,Standard,Sound,100,0,NA,-,5,mask0.bmp,200,63,63,1,633,161,Handle 63 _Odd_Left,Fast_novel,standard.wav
1,Control,03/04/2014,UMEA Lab,303,3,3,24,male,right,standardS_,Standard,Sound,100,0,NA,-,7,mask0.bmp,200,63,63,1,622,205,Handle 63 _Odd_Left,Fast_novel,standard.wav
1,Control,03/04/2014,UMEA Lab,304,3,3,24,male,right,standardS_,Standard,Sound,100,0,NA,-,8,mask0.bmp,200,255,255,1,457,207,Handle 63 _Odd_Left,Fast_novel,standard.wav
1,Control,03/04/2014,UMEA Lab,305,3,3,24,male,right,novelS_,Novel,Sound,100,0,NA,-,7,mask0.bmp,200,63,63,1,629,202,Handle 63 _Odd_Left,Fast_novel,novel.wav
1,Control,03/04/2014,UMEA Lab,306,3,3,24,male,right,standardS_,Standard,Sound,100,0,NA,-,2,mask0.bmp,200,255,255,1,627,206,Handle 63 _Odd_Left,Fast_novel,standard.wav
1,Control,03/04/2014,UMEA Lab,307,3,3,24,male,right,standardS_,Standard,Sound,100,0,NA,-,3,mask0.bmp,200,63,63,1,567,194,Handle 63 _Odd_Left,Fast_novel,standard.wav
1,Control,03/04/2014,UMEA Lab,308,3,3,24,male,right,novelS_,Novel,Sound,100,0,NA,-,5,mask0.bmp,200,63,63,1,648,200,Handle 63 _Odd_Left,Fast_novel,novel.wav
1,Control,03/04/2014,UMEA Lab,309,3,3,24,male,right,standardS_,Standard,Sound,100,0,NA,-,4,mask0.bmp,200,255,255,1,536,204,Handle 63 _Odd_Left,Fast_novel,standard.wav
1,Control,03/04/2014,UMEA Lab,310,3,3,24,male,right,standardS_,Standard,Sound,100,0,NA,-,8,mask0.bmp,200,255,255,1,524,181,Handle 63 _Odd_Left,Fast_novel,standard.wav
1,Control,03/04/2014,UMEA Lab,311,3,3,24,male,right,standardS_,Standard,Sound,100,0,NA,-,4,mask0.bmp,200,255,63,0,497,232,Handle 63 _Odd_Left,Fast_novel,standard.wav
1,Control,03/04/2014,UMEA Lab,312,3,3,24,male,right,novelS_,Novel,Sound,100,0,NA,-,1,mask0.bmp,200,63,63,1,536,204,Handle 63 _Odd_Left,Fast_novel,novel.wav
1,Control,03/04/2014,UMEA Lab,313,3,3,24,male,right,standardS_,Standard,Sound,100,0,NA,-,2,mask0.bmp,200,255,255,1,471,183,Handle 63 _Odd_Left,Fast_novel,standard.wav
1,Control,03/04/2014,UMEA Lab,314,3,3,24,male,right,standardS_,Standard,Sound,100,0,NA,-,8,mask0.bmp,200,255,255,1,612,172,Handle 63 _Odd_Left,Fast_novel,standard.wav
1,Control,03/04/2014,UMEA Lab,315,3,3,24,male,right,standardS_,Standard,Sound,100,0,NA,-,6,mask0.bmp,200,255,255,1,507,187,Handle 63 _Odd_Left,Fast_novel,standard.wav
1,Control,03/04/2014,UMEA Lab,316,3,3,24,male,right,novelS_,Novel,Sound,100,0,NA,-,5,mask0.bmp,200,63,63,1,498,202,Handle 63 _Odd_Left,Fast_novel,novel.wav
1,Control,03/04/2014,UMEA Lab,317,3,3,24,male,right,standardS_,Standard,Sound,100,0,NA,-,1,mask0.bmp,200,63,63,1,669,150,Handle 63 _Odd_Left,Fast_novel,standard.wav
1,Control,03/04/2014,UMEA Lab,318,3,3,24,male,right,standardS_,Standard,Sound,100,0,NA,-,4,mask0.bmp,200,255,255,1,581,194,Handle 63 _Odd_Left,Fast_novel,standard.wav
1,Control,03/04/2014,UMEA Lab,319,3,3,24,male,right,standardS_,Standard,Sound,100,0,NA,-,3,mask0.bmp,200,63,63,1,446,166,Handle 63 _Odd_Left,Fast_novel,standard.wav
1,Control,03/04/2014,UMEA Lab,320,3,3,24,male,right,standardS_,Standard,Sound,100,0,NA,-,1,mask0.bmp,200,63,63,1,642,157,Handle 63 _Odd_Left,Fast_novel,standard.wav
1,Control,03/04/2014,UMEA Lab,321,3,3,24,male,right,standardS_,Standard,Sound,100,0,NA,-,3,mask0.bmp,200,63,63,1,621,158,Handle 63 _Odd_Left,Fast_novel,standard.wav
1,Control,03/04/2014,UMEA Lab,322,3,3,24,male,right,standardS_,Standard,Sound,100,0,NA,-,6,mask0.bmp,200,255,255,1,605,189,Handle 63 _Odd_Left,Fast_novel,standard.wav
1,Control,03/04/2014,UMEA Lab,323,3,3,24,male,right,standardS_,Standard,Sound,100,0,NA,-,7,mask0.bmp,200,63,63,1,605,213,Handle 63 _Odd_Left,Fast_novel,standard.wav
1,Control,03/04/2014,UMEA Lab,324,3,3,24,male,right,standardS_,Standard,Sound,100,0,NA,-,3,mask0.bmp,200,63,63,1,545,212,Handle 63 _Odd_Left,Fast_novel,standard.wav
1,Control,03/04/2014,UMEA Lab,325,3,3,24,male,right,novelS_,Novel,Sound,100,0,NA,-,6,mask0.bmp,200,255,255,1,548,194,Handle 63 _Odd_Left,Fast_novel,novel.wav
1,Control,03/04/2014,UMEA Lab,326,3,3,24,male,right,standardS_,Standard,Sound,100,0,NA,-,5,mask0.bmp,200,63,63,1,571,180,Handle 63 _Odd_Left,Fast_novel,standard.wav
1,Control,03/04/2014,UMEA Lab,327,3,3,24,male,right,standardS_,Standard,Sound,100,0,NA,-,1,mask0.bmp,200,63,63,1,568,157,Handle 63 _Odd_Left,Fast_novel,standard.wav
1,Control,03/04/2014,UMEA Lab,328,3,3,24,male,right,standardS_,Standard,Sound,100,0,NA,-,8,mask0.bmp,200,255,255,1,528,193,Handle 63 _Odd_Left,Fast_novel,standard.wav
1,Control,03/04/2014,UMEA Lab,329,3,3,24,male,right,standardS_,Standard,Sound,100,0,NA,-,3,mask0.bmp,200,63,63,1,574,222,Handle 63 _Odd_Left,Fast_novel,standard.wav
1,Control,03/04/2014,UMEA Lab,330,3,3,24,male,right,standardS_,Standard,Sound,100,0,NA,-,7,mask0.bmp,200,63,63,1,492,206,Handle 63 _Odd_Left,Fast_novel,standard.wav
1,Control,03/04/2014,UMEA Lab,331,3,3,24,male,right,standardS_,Standard,Sound,100,0,NA,-,5,mask0.bmp,200,63,255,0,483,83,Handle 63 _Odd_Left,Fast_novel,standard.wav
1,Control,03/04/2014,UMEA Lab,332,3,3,24,male,right,standardS_,Standard,Sound,100,0,NA,-,2,mask0.bmp,200,255,255,1,597,171,Handle 63 _Odd_Left,Fast_novel,standard.wav
1,Control,03/04/2014,UMEA Lab,333,3,3,24,male,right,standardS_,Standard,Sound,100,0,NA,-,5,mask0.bmp,200,63,63,1,620,209,Handle 63 _Odd_Left,Fast_novel,standard.wav
1,Control,03/04/2014,UMEA Lab,334,3,3,24,male,right,novelS_,Novel,Sound,100,0,NA,-,4,mask0.bmp,200,255,255,1,575,220,Handle 63 _Odd_Left,Fast_novel,novel.wav
1,Control,03/04/2014,UMEA Lab,335,3,3,24,male,right,standardS_,Standard,Sound,100,0,NA,-,8,mask0.bmp,200,255,255,1,569,202,Handle 63 _Odd_Left,Fast_novel,standard.wav
1,Control,03/04/2014,UMEA Lab,336,3,3,24,male,right,standardS_,Standard,Sound,100,0,NA,-,7,mask0.bmp,200,63,63,1,553,163,Handle 63 _Odd_Left,Fast_novel,standard.wav
1,Control,03/04/2014,UMEA Lab,337,3,3,24,male,right,standardS_,Standard,Sound,100,0,NA,-,4,mask0.bmp,200,255,255,1,604,199,Handle 63 _Odd_Left,Fast_novel,standard.wav
1,Control,03/04/2014,UMEA Lab,338,3,3,24,male,right,standardS_,Standard,Sound,100,0,NA,-,7,mask0.bmp,200,63,63,1,566,192,Handle 63 _Odd_Left,Fast_novel,standard.wav
1,Control,03/04/2014,UMEA Lab,339,3,3,24,male,right,standardS_,Standard,Sound,100,0,NA,-,5,mask0.bmp,200,63,63,1,572,213,Handle 63 _Odd_Left,Fast_novel,standard.wav
1,Control,03/04/2014,UMEA Lab,340,3,3,24,male,right,standardS_,Standard,Sound,100,0,NA,-,2,mask0.bmp,200,255,255,1,615,204,Handle 63 _Odd_Left,Fast_novel,standard.wav
1,Control,03/04/2014,UMEA Lab,341,3,3,24,male,right,standardS_,Standard,Sound,100,0,NA,-,5,mask0.bmp,200,63,63,1,595,185,Handle 63 _Odd_Left,Fast_novel,standard.wav
1,Control,03/04/2014,UMEA Lab,342,3,3,24,male,right,novelS_,Novel,Sound,100,0,NA,-,7,mask0.bmp,200,63,63,1,603,178,Handle 63 _Odd_Left,Fast_novel,novel.wav
1,Control,03/04/2014,UMEA Lab,343,3,3,24,male,right,standardS_,Standard,Sound,100,0,NA,-,3,mask0.bmp,200,63,63,1,567,190,Handle 63 _Odd_Left,Fast_novel,standard.wav
1,Control,03/04/2014,UMEA Lab,344,3,3,24,male,right,standardS_,Standard,Sound,100,0,NA,-,8,mask0.bmp,200,255,255,1,477,197,Handle 63 _Odd_Left,Fast_novel,standard.wav
1,Control,03/04/2014,UMEA Lab,345,3,3,24,male,right,novelS_,Novel,Sound,100,0,NA,-,4,mask0.bmp,200,255,255,1,572,190,Handle 63 _Odd_Left,Fast_novel,novel.wav
1,Control,03/04/2014,UMEA Lab,346,3,3,24,male,right,standardS_,Standard,Sound,100,0,NA,-,3,mask0.bmp,200,63,63,1,515,184,Handle 63 _Odd_Left,Fast_novel,standard.wav
1,Control,03/04/2014,UMEA Lab,347,3,3,24,male,right,standardS_,Standard,Sound,100,0,NA,-,8,mask0.bmp,200,255,255,1,467,188,Handle 63 _Odd_Left,Fast_novel,standard.wav
1,Control,03/04/2014,UMEA Lab,348,3,3,24,male,right,novelS_,Novel,Sound,100,0,NA,-,2,mask0.bmp,200,255,255,1,678,204,Handle 63 _Odd_Left,Fast_novel,novel.wav
1,Control,03/04/2014,UMEA Lab,349,3,3,24,male,right,standardS_,Standard,Sound,100,0,NA,-,3,mask0.bmp,200,63,63,1,566,195,Handle 63 _Odd_Left,Fast_novel,standard.wav
1,Control,03/04/2014,UMEA Lab,350,3,3,24,male,right,standardS_,Standard,Sound,100,0,NA,-,1,mask0.bmp,200,63,63,1,598,209,Handle 63 _Odd_Left,Fast_novel,standard.wav
1,Control,03/04/2014,UMEA Lab,351,3,3,24,male,right,standardS_,Standard,Sound,100,0,NA,-,6,mask0.bmp,200,255,255,1,483,197,Handle 63 _Odd_Left,Fast_novel,standard.wav
1,Control,03/04/2014,UMEA Lab,352,3,3,24,male,right,standardS_,Standard,Sound,100,0,NA,-,8,mask0.bmp,200,255,255,1,464,194,Handle 63 _Odd_Left,Fast_novel,standard.wav
1,Control,03/04/2014,UMEA Lab,353,3,3,24,male,right,novelS_,Novel,Sound,100,0,NA,-,1,mask0.bmp,200,63,63,1,591,208,Handle 63 _Odd_Left,Fast_novel,novel.wav
1,Control,03/04/2014,UMEA Lab,354,3,3,24,male,right,standardS_,Standard,Sound,100,0,NA,-,8,mask0.bmp,200,255,255,1,465,180,Handle 63 _Odd_Left,Fast_novel,standard.wav
1,Control,03/04/2014,UMEA Lab,355,3,3,24,male,right,standardS_,Standard,Sound,100,0,NA,-,5,mask0.bmp,200,63,63,1,556,202,Handle 63 _Odd_Left,Fast_novel,standard.wav
1,Control,03/04/2014,UMEA Lab,356,3,3,24,male,right,standardS_,Standard,Sound,100,0,NA,-,3,mask0.bmp,200,63,63,1,530,198,Handle 63 _Odd_Left,Fast_novel,standard.wav
1,Control,03/04/2014,UMEA Lab,357,3,3,24,male,right,standardS_,Standard,Sound,100,0,NA,-,1,mask0.bmp,200,63,63,1,590,203,Handle 63 _Odd_Left,Fast_novel,standard.wav
1,Control,03/04/2014,UMEA Lab,358,3,3,24,male,right,novelS_,Novel,Sound,100,0,NA,-,7,mask0.bmp,200,63,63,1,557,189,Handle 63 _Odd_Left,Fast_novel,novel.wav
1,Control,03/04/2014,UMEA Lab,359,3,3,24,male,right,standardS_,Standard,Sound,100,0,NA,-,5,mask0.bmp,200,63,63,1,549,166,Handle 63 _Odd_Left,Fast_novel,standard.wav
1,Control,03/04/2014,UMEA Lab,360,3,3,24,male,right,standardS_,Standard,Sound,100,0,NA,-,8,mask0.bmp,200,255,255,1,443,169,Handle 63 _Odd_Left,Fast_novel,standard.wav
1,Control,03/04/2014,UMEA Lab,25,4,4,24,male,right,practice,standardS_,Sound,100,0,NA,-,4,mask0.bmp,200,255,63,0,509,167,Handle 63 _Odd_Left,Fast_novel,standard.wav
1,Control,03/04/2014,UMEA Lab,26,4,4,24,male,right,practice,standardS_,Sound,100,0,NA,-,7,mask0.bmp,200,63,63,1,568,186,Handle 63 _Odd_Left,Fast_novel,standard.wav
1,Control,03/04/2014,UMEA Lab,27,4,4,24,male,right,practice,standardS_,Sound,100,0,NA,-,1,mask0.bmp,200,62,63,0,535,154,Handle 63 _Odd_Left,Fast_novel,standard.wav
1,Control,03/04/2014,UMEA Lab,28,4,4,24,male,right,practice,standardS_,Sound,100,0,NA,-,8,mask0.bmp,200,255,255,1,476,193,Handle 63 _Odd_Left,Fast_novel,standard.wav
1,Control,03/04/2014,UMEA Lab,29,4,4,24,male,right,practice,standardS_,Sound,100,0,NA,-,2,mask0.bmp,200,255,255,1,420,173,Handle 63 _Odd_Left,Fast_novel,standard.wav
1,Control,03/04/2014,UMEA Lab,30,4,4,24,male,right,practice,standardS_,Sound,100,0,NA,-,6,mask0.bmp,200,255,63,0,481,171,Handle 63 _Odd_Left,Fast_novel,standard.wav
1,Control,03/04/2014,UMEA Lab,31,4,4,24,male,right,practice,standardS_,Sound,100,0,NA,-,5,mask0.bmp,200,63,63,1,472,177,Handle 63 _Odd_Left,Fast_novel,standard.wav
1,Control,03/04/2014,UMEA Lab,32,4,4,24,male,right,practice,standardS_,Sound,100,0,NA,-,3,mask0.bmp,200,63,63,1,500,163,Handle 63 _Odd_Left,Fast_novel,standard.wav
1,Control,03/04/2014,UMEA Lab,361,4,4,24,male,right,standardS_,Standard,Sound,100,0,NA,-,4,mask0.bmp,200,255,255,1,484,201,Handle 63 _Odd_Left,Fast_novel,standard.wav
1,Control,03/04/2014,UMEA Lab,362,4,4,24,male,right,novelS_,Novel,Sound,100,0,NA,-,7,mask0.bmp,200,63,63,1,521,191,Handle 63 _Odd_Left,Fast_novel,novel.wav
1,Control,03/04/2014,UMEA Lab,363,4,4,24,male,right,standardS_,Standard,Sound,100,0,NA,-,6,mask0.bmp,200,255,255,1,416,188,Handle 63 _Odd_Left,Fast_novel,standard.wav
1,Control,03/04/2014,UMEA Lab,364,4,4,24,male,right,standardS_,Standard,Sound,100,0,NA,-,2,mask0.bmp,200,255,255,1,430,156,Handle 63 _Odd_Left,Fast_novel,standard.wav
1,Control,03/04/2014,UMEA Lab,365,4,4,24,male,right,standardS_,Standard,Sound,100,0,NA,-,5,mask0.bmp,200,63,255,0,481,124,Handle 63 _Odd_Left,Fast_novel,standard.wav
1,Control,03/04/2014,UMEA Lab,366,4,4,24,male,right,novelS_,Novel,Sound,100,0,NA,-,4,mask0.bmp,200,255,255,1,483,176,Handle 63 _Odd_Left,Fast_novel,novel.wav
1,Control,03/04/2014,UMEA Lab,367,4,4,24,male,right,standardS_,Standard,Sound,100,0,NA,-,6,mask0.bmp,200,255,255,1,546,175,Handle 63 _Odd_Left,Fast_novel,standard.wav
1,Control,03/04/2014,UMEA Lab,368,4,4,24,male,right,standardS_,Standard,Sound,100,0,NA,-,3,mask0.bmp,200,63,63,1,480,165,Handle 63 _Odd_Left,Fast_novel,standard.wav
1,Control,03/04/2014,UMEA Lab,369,4,4,24,male,right,standardS_,Standard,Sound,100,0,NA,-,4,mask0.bmp,200,255,255,1,537,171,Handle 63 _Odd_Left,Fast_novel,standard.wav
1,Control,03/04/2014,UMEA Lab,370,4,4,24,male,right,novelS_,Novel,Sound,100,0,NA,-,8,mask0.bmp,200,255,255,1,523,183,Handle 63 _Odd_Left,Fast_novel,novel.wav
1,Control,03/04/2014,UMEA Lab,371,4,4,24,male,right,standardS_,Standard,Sound,100,0,NA,-,3,mask0.bmp,200,63,63,1,448,179,Handle 63 _Odd_Left,Fast_novel,standard.wav
1,Control,03/04/2014,UMEA Lab,372,4,4,24,male,right,standardS_,Standard,Sound,100,0,NA,-,1,mask0.bmp,200,63,63,1,503,167,Handle 63 _Odd_Left,Fast_novel,standard.wav
1,Control,03/04/2014,UMEA Lab,373,4,4,24,male,right,standardS_,Standard,Sound,100,0,NA,-,7,mask0.bmp,200,63,255,0,472,178,Handle 63 _Odd_Left,Fast_novel,standard.wav
1,Control,03/04/2014,UMEA Lab,374,4,4,24,male,right,standardS_,Standard,Sound,100,0,NA,-,5,mask0.bmp,200,63,63,1,507,206,Handle 63 _Odd_Left,Fast_novel,standard.wav
1,Control,03/04/2014,UMEA Lab,375,4,4,24,male,right,standardS_,Standard,Sound,100,0,NA,-,4,mask0.bmp,200,255,255,1,408,83,Handle 63 _Odd_Left,Fast_novel,standard.wav
1,Control,03/04/2014,UMEA Lab,376,4,4,24,male,right,standardS_,Standard,Sound,100,0,NA,-,1,mask0.bmp,200,63,255,0,495,161,Handle 63 _Odd_Left,Fast_novel,standard.wav
1,Control,03/04/2014,UMEA Lab,377,4,4,24,male,right,standardS_,Standard,Sound,100,0,NA,-,8,mask0.bmp,200,255,255,1,463,164,Handle 63 _Odd_Left,Fast_novel,standard.wav
1,Control,03/04/2014,UMEA Lab,378,4,4,24,male,right,standardS_,Standard,Sound,100,0,NA,-,5,mask0.bmp,200,63,63,1,495,210,Handle 63 _Odd_Left,Fast_novel,standard.wav
1,Control,03/04/2014,UMEA Lab,379,4,4,24,male,right,standardS_,Standard,Sound,100,0,NA,-,7,mask0.bmp,200,63,63,1,476,165,Handle 63 _Odd_Left,Fast_novel,standard.wav
1,Control,03/04/2014,UMEA Lab,380,4,4,24,male,right,novelS_,Novel,Sound,100,0,NA,-,2,mask0.bmp,200,255,255,1,627,191,Handle 63 _Odd_Left,Fast_novel,novel.wav
1,Control,03/04/2014,UMEA Lab,381,4,4,24,male,right,standardS_,Standard,Sound,100,0,NA,-,1,mask0.bmp,200,63,63,1,469,141,Handle 63 _Odd_Left,Fast_novel,standard.wav
1,Control,03/04/2014,UMEA Lab,382,4,4,24,male,right,standardS_,Standard,Sound,100,0,NA,-,4,mask0.bmp,200,255,63,0,505,156,Handle 63 _Odd_Left,Fast_novel,standard.wav
1,Control,03/04/2014,UMEA Lab,383,4,4,24,male,right,novelS_,Novel,Sound,100,0,NA,-,2,mask0.bmp,200,255,255,1,612,179,Handle 63 _Odd_Left,Fast_novel,novel.wav
1,Control,03/04/2014,UMEA Lab,384,4,4,24,male,right,standardS_,Standard,Sound,100,0,NA,-,7,mask0.bmp,200,63,63,1,483,227,Handle 63 _Odd_Left,Fast_novel,standard.wav
1,Control,03/04/2014,UMEA Lab,385,4,4,24,male,right,standardS_,Standard,Sound,100,0,NA,-,1,mask0.bmp,200,63,255,0,450,152,Handle 63 _Odd_Left,Fast_novel,standard.wav
1,Control,03/04/2014,UMEA Lab,386,4,4,24,male,right,novelS_,Novel,Sound,100,0,NA,-,3,mask0.bmp,200,63,63,1,748,202,Handle 63 _Odd_Left,Fast_novel,novel.wav
1,Control,03/04/2014,UMEA Lab,387,4,4,24,male,right,standardS_,Standard,Sound,100,0,NA,-,5,mask0.bmp,200,63,63,1,559,185,Handle 63 _Odd_Left,Fast_novel,standard.wav
1,Control,03/04/2014,UMEA Lab,388,4,4,24,male,right,standardS_,Standard,Sound,100,0,NA,-,6,mask0.bmp,200,255,63,0,504,159,Handle 63 _Odd_Left,Fast_novel,standard.wav
1,Control,03/04/2014,UMEA Lab,389,4,4,24,male,right,standardS_,Standard,Sound,100,0,NA,-,8,mask0.bmp,200,255,255,1,512,204,Handle 63 _Odd_Left,Fast_novel,standard.wav
1,Control,03/04/2014,UMEA Lab,390,4,4,24,male,right,standardS_,Standard,Sound,100,0,NA,-,6,mask0.bmp,200,255,255,1,487,176,Handle 63 _Odd_Left,Fast_novel,standard.wav
1,Control,03/04/2014,UMEA Lab,391,4,4,24,male,right,standardS_,Standard,Sound,100,0,NA,-,3,mask0.bmp,200,63,63,1,511,200,Handle 63 _Odd_Left,Fast_novel,standard.wav
1,Control,03/04/2014,UMEA Lab,392,4,4,24,male,right,standardS_,Standard,Sound,100,0,NA,-,4,mask0.bmp,200,255,63,0,533,164,Handle 63 _Odd_Left,Fast_novel,standard.wav
1,Control,03/04/2014,UMEA Lab,393,4,4,24,male,right,novelS_,Novel,Sound,100,0,NA,-,3,mask0.bmp,200,63,63,1,496,210,Handle 63 _Odd_Left,Fast_novel,novel.wav
1,Control,03/04/2014,UMEA Lab,394,4,4,24,male,right,standardS_,Standard,Sound,100,0,NA,-,4,mask0.bmp,200,255,255,1,446,193,Handle 63 _Odd_Left,Fast_novel,standard.wav
1,Control,03/04/2014,UMEA Lab,395,4,4,24,male,right,standardS_,Standard,Sound,100,0,NA,-,8,mask0.bmp,200,255,255,1,606,173,Handle 63 _Odd_Left,Fast_novel,standard.wav
1,Control,03/04/2014,UMEA Lab,396,4,4,24,male,right,standardS_,Standard,Sound,100,0,NA,-,5,mask0.bmp,200,63,63,1,489,201,Handle 63 _Odd_Left,Fast_novel,standard.wav
1,Control,03/04/2014,UMEA Lab,397,4,4,24,male,right,standardS_,Standard,Sound,100,0,NA,-,7,mask0.bmp,200,63,255,0,569,188,Handle 63 _Odd_Left,Fast_novel,standard.wav
1,Control,03/04/2014,UMEA Lab,398,4,4,24,male,right,standardS_,Standard,Sound,100,0,NA,-,1,mask0.bmp,200,63,63,1,593,189,Handle 63 _Odd_Left,Fast_novel,standard.wav
1,Control,03/04/2014,UMEA Lab,399,4,4,24,male,right,standardS_,Standard,Sound,100,0,NA,-,8,mask0.bmp,200,255,255,1,509,193,Handle 63 _Odd_Left,Fast_novel,standard.wav
1,Control,03/04/2014,UMEA Lab,400,4,4,24,male,right,novelS_,Novel,Sound,100,0,NA,-,7,mask0.bmp,200,63,63,1,575,190,Handle 63 _Odd_Left,Fast_novel,novel.wav
1,Control,03/04/2014,UMEA Lab,401,4,4,24,male,right,standardS_,Standard,Sound,100,0,NA,-,2,mask0.bmp,200,255,255,1,556,178,Handle 63 _Odd_Left,Fast_novel,standard.wav
1,Control,03/04/2014,UMEA Lab,402,4,4,24,male,right,standardS_,Standard,Sound,100,0,NA,-,4,mask0.bmp,200,255,63,0,453,90,Handle 63 _Odd_Left,Fast_novel,standard.wav
1,Control,03/04/2014,UMEA Lab,403,4,4,24,male,right,standardS_,Standard,Sound,100,0,NA,-,1,mask0.bmp,200,63,63,1,617,166,Handle 63 _Odd_Left,Fast_novel,standard.wav
1,Control,03/04/2014,UMEA Lab,404,4,4,24,male,right,standardS_,Standard,Sound,100,0,NA,-,6,mask0.bmp,200,255,255,1,492,199,Handle 63 _Odd_Left,Fast_novel,standard.wav
1,Control,03/04/2014,UMEA Lab,405,4,4,24,male,right,novelS_,Novel,Sound,100,0,NA,-,5,mask0.bmp,200,63,63,1,507,150,Handle 63 _Odd_Left,Fast_novel,novel.wav
1,Control,03/04/2014,UMEA Lab,406,4,4,24,male,right,standardS_,Standard,Sound,100,0,NA,-,1,mask0.bmp,200,63,63,1,621,161,Handle 63 _Odd_Left,Fast_novel,standard.wav
1,Control,03/04/2014,UMEA Lab,407,4,4,24,male,right,standardS_,Standard,Sound,100,0,NA,-,5,mask0.bmp,200,63,255,0,507,182,Handle 63 _Odd_Left,Fast_novel,standard.wav
1,Control,03/04/2014,UMEA Lab,408,4,4,24,male,right,novelS_,Novel,Sound,100,0,NA,-,2,mask0.bmp,200,255,255,1,619,190,Handle 63 _Odd_Left,Fast_novel,novel.wav
1,Control,03/04/2014,UMEA Lab,409,4,4,24,male,right,standardS_,Standard,Sound,100,0,NA,-,3,mask0.bmp,200,63,63,1,513,198,Handle 63 _Odd_Left,Fast_novel,standard.wav
1,Control,03/04/2014,UMEA Lab,410,4,4,24,male,right,standardS_,Standard,Sound,100,0,NA,-,5,mask0.bmp,200,63,63,1,565,169,Handle 63 _Odd_Left,Fast_novel,standard.wav
1,Control,03/04/2014,UMEA Lab,411,4,4,24,male,right,standardS_,Standard,Sound,100,0,NA,-,1,mask0.bmp,200,63,63,1,577,202,Handle 63 _Odd_Left,Fast_novel,standard.wav
1,Control,03/04/2014,UMEA Lab,412,4,4,24,male,right,standardS_,Standard,Sound,100,0,NA,-,6,mask0.bmp,200,255,255,1,492,174,Handle 63 _Odd_Left,Fast_novel,standard.wav
1,Control,03/04/2014,UMEA Lab,413,4,4,24,male,right,standardS_,Standard,Sound,100,0,NA,-,5,mask0.bmp,200,63,63,1,547,188,Handle 63 _Odd_Left,Fast_novel,standard.wav
1,Control,03/04/2014,UMEA Lab,414,4,4,24,male,right,novelS_,Novel,Sound,100,0,NA,-,2,mask0.bmp,200,255,255,1,620,186,Handle 63 _Odd_Left,Fast_novel,novel.wav
1,Control,03/04/2014,UMEA Lab,415,4,4,24,male,right,standardS_,Standard,Sound,100,0,NA,-,3,mask0.bmp,200,63,63,1,507,169,Handle 63 _Odd_Left,Fast_novel,standard.wav
1,Control,03/04/2014,UMEA Lab,416,4,4,24,male,right,standardS_,Standard,Sound,100,0,NA,-,5,mask0.bmp,200,63,63,1,539,203,Handle 63 _Odd_Left,Fast_novel,standard.wav
1,Control,03/04/2014,UMEA Lab,417,4,4,24,male,right,novelS_,Novel,Sound,100,0,NA,-,1,mask0.bmp,200,63,63,1,603,185,Handle 63 _Odd_Left,Fast_novel,novel.wav
1,Control,03/04/2014,UMEA Lab,418,4,4,24,male,right,standardS_,Standard,Sound,100,0,NA,-,4,mask0.bmp,200,255,255,1,489,187,Handle 63 _Odd_Left,Fast_novel,standard.wav
1,Control,03/04/2014,UMEA Lab,419,4,4,24,male,right,standardS_,Standard,Sound,100,0,NA,-,6,mask0.bmp,200,255,255,1,483,172,Handle 63 _Odd_Left,Fast_novel,standard.wav
1,Control,03/04/2014,UMEA Lab,420,4,4,24,male,right,standardS_,Standard,Sound,100,0,NA,-,8,mask0.bmp,200,255,255,1,504,178,Handle 63 _Odd_Left,Fast_novel,standard.wav
1,Control,03/04/2014,UMEA Lab,421,4,4,24,male,right,standardS_,Standard,Sound,100,0,NA,-,1,mask0.bmp,200,63,63,1,562,193,Handle 63 _Odd_Left,Fast_novel,standard.wav
1,Control,03/04/2014,UMEA Lab,422,4,4,24,male,right,novelS_,Novel,Sound,100,0,NA,-,3,mask0.bmp,200,63,63,1,529,225,Handle 63 _Odd_Left,Fast_novel,novel.wav
1,Control,03/04/2014,UMEA Lab,423,4,4,24,male,right,standardS_,Standard,Sound,100,0,NA,-,2,mask0.bmp,200,255,63,0,504,204,Handle 63 _Odd_Left,Fast_novel,standard.wav
1,Control,03/04/2014,UMEA Lab,424,4,4,24,male,right,standardS_,Standard,Sound,100,0,NA,-,3,mask0.bmp,200,63,63,1,567,199,Handle 63 _Odd_Left,Fast_novel,standard.wav
1,Control,03/04/2014,UMEA Lab,425,4,4,24,male,right,standardS_,Standard,Sound,100,0,NA,-,1,mask0.bmp,200,63,63,1,564,202,Handle 63 _Odd_Left,Fast_novel,standard.wav
1,Control,03/04/2014,UMEA Lab,426,4,4,24,male,right,standardS_,Standard,Sound,100,0,NA,-,8,mask0.bmp,200,255,255,1,501,200,Handle 63 _Odd_Left,Fast_novel,standard.wav
1,Control,03/04/2014,UMEA Lab,427,4,4,24,male,right,novelS_,Novel,Sound,100,0,NA,-,2,mask0.bmp,200,255,255,1,667,200,Handle 63 _Odd_Left,Fast_novel,novel.wav
1,Control,03/04/2014,UMEA Lab,428,4,4,24,male,right,standardS_,Standard,Sound,100,0,NA,-,8,mask0.bmp,200,255,255,1,525,171,Handle 63 _Odd_Left,Fast_novel,standard.wav
1,Control,03/04/2014,UMEA Lab,429,4,4,24,male,right,standardS_,Standard,Sound,100,0,NA,-,6,mask0.bmp,200,255,63,0,452,210,Handle 63 _Odd_Left,Fast_novel,standard.wav
1,Control,03/04/2014,UMEA Lab,430,4,4,24,male,right,standardS_,Standard,Sound,100,0,NA,-,7,mask0.bmp,200,63,63,1,641,223,Handle 63 _Odd_Left,Fast_novel,standard.wav
1,Control,03/04/2014,UMEA Lab,431,4,4,24,male,right,novelS_,Novel,Sound,100,0,NA,-,6,mask0.bmp,200,255,255,1,502,197,Handle 63 _Odd_Left,Fast_novel,novel.wav
1,Control,03/04/2014,UMEA Lab,432,4,4,24,male,right,standardS_,Standard,Sound,100,0,NA,-,4,mask0.bmp,200,255,255,1,495,171,Handle 63 _Odd_Left,Fast_novel,standard.wav
1,Control,03/04/2014,UMEA Lab,433,4,4,24,male,right,standardS_,Standard,Sound,100,0,NA,-,8,mask0.bmp,200,255,255,1,529,191,Handle 63 _Odd_Left,Fast_novel,standard.wav
1,Control,03/04/2014,UMEA Lab,434,4,4,24,male,right,standardS_,Standard,Sound,100,0,NA,-,3,mask0.bmp,200,63,255,0,468,158,Handle 63 _Odd_Left,Fast_novel,standard.wav
1,Control,03/04/2014,UMEA Lab,435,4,4,24,male,right,standardS_,Standard,Sound,100,0,NA,-,1,mask0.bmp,200,63,63,1,524,200,Handle 63 _Odd_Left,Fast_novel,standard.wav
1,Control,03/04/2014,UMEA Lab,436,4,4,24,male,right,novelS_,Novel,Sound,100,0,NA,-,8,mask0.bmp,200,255,255,1,550,193,Handle 63 _Odd_Left,Fast_novel,novel.wav
1,Control,03/04/2014,UMEA Lab,437,4,4,24,male,right,standardS_,Standard,Sound,100,0,NA,-,4,mask0.bmp,200,255,255,1,491,158,Handle 63 _Odd_Left,Fast_novel,standard.wav
1,Control,03/04/2014,UMEA Lab,438,4,4,24,male,right,standardS_,Standard,Sound,100,0,NA,-,5,mask0.bmp,200,63,63,1,441,246,Handle 63 _Odd_Left,Fast_novel,standard.wav
1,Control,03/04/2014,UMEA Lab,439,4,4,24,male,right,standardS_,Standard,Sound,100,0,NA,-,1,mask0.bmp,200,63,63,1,461,216,Handle 63 _Odd_Left,Fast_novel,standard.wav
1,Control,03/04/2014,UMEA Lab,440,4,4,24,male,right,standardS_,Standard,Sound,100,0,NA,-,5,mask0.bmp,200,63,63,1,527,164,Handle 63 _Odd_Left,Fast_novel,standard.wav
1,Control,03/04/2014,UMEA Lab,441,4,4,24,male,right,standardS_,Standard,Sound,100,0,NA,-,3,mask0.bmp,200,63,255,0,402,82,Handle 63 _Odd_Left,Fast_novel,standard.wav
1,Control,03/04/2014,UMEA Lab,442,4,4,24,male,right,standardS_,Standard,Sound,100,0,NA,-,2,mask0.bmp,200,255,63,0,504,117,Handle 63 _Odd_Left,Fast_novel,standard.wav
1,Control,03/04/2014,UMEA Lab,443,4,4,24,male,right,novelS_,Novel,Sound,100,0,NA,-,1,mask0.bmp,200,63,63,1,545,155,Handle 63 _Odd_Left,Fast_novel,novel.wav
1,Control,03/04/2014,UMEA Lab,444,4,4,24,male,right,standardS_,Standard,Sound,100,0,NA,-,2,mask0.bmp,200,255,63,0,481,144,Handle 63 _Odd_Left,Fast_novel,standard.wav
1,Control,03/04/2014,UMEA Lab,445,4,4,24,male,right,standardS_,Standard,Sound,100,0,NA,-,7,mask0.bmp,200,63,63,1,492,150,Handle 63 _Odd_Left,Fast_novel,standard.wav
1,Control,03/04/2014,UMEA Lab,446,4,4,24,male,right,standardS_,Standard,Sound,100,0,NA,-,2,mask0.bmp,200,255,63,0,516,120,Handle 63 _Odd_Left,Fast_novel,standard.wav
1,Control,03/04/2014,UMEA Lab,447,4,4,24,male,right,standardS_,Standard,Sound,100,0,NA,-,5,mask0.bmp,200,63,63,1,608,188,Handle 63 _Odd_Left,Fast_novel,standard.wav
1,Control,03/04/2014,UMEA Lab,448,4,4,24,male,right,novelS_,Novel,Sound,100,0,NA,-,2,mask0.bmp,200,255,255,1,513,188,Handle 63 _Odd_Left,Fast_novel,novel.wav
1,Control,03/04/2014,UMEA Lab,449,4,4,24,male,right,standardS_,Standard,Sound,100,0,NA,-,5,mask0.bmp,200,63,63,1,553,185,Handle 63 _Odd_Left,Fast_novel,standard.wav
1,Control,03/04/2014,UMEA Lab,450,4,4,24,male,right,standardS_,Standard,Sound,100,0,NA,-,6,mask0.bmp,200,255,255,1,457,195,Handle 63 _Odd_Left,Fast_novel,standard.wav
1,Control,03/04/2014,UMEA Lab,451,4,4,24,male,right,standardS_,Standard,Sound,100,0,NA,-,8,mask0.bmp,200,255,255,1,461,170,Handle 63 _Odd_Left,Fast_novel,standard.wav
1,Control,03/04/2014,UMEA Lab,452,4,4,24,male,right,standardS_,Standard,Sound,100,0,NA,-,4,mask0.bmp,200,255,255,1,473,170,Handle 63 _Odd_Left,Fast_novel,standard.wav
1,Control,03/04/2014,UMEA Lab,453,4,4,24,male,right,standardS_,Standard,Sound,100,0,NA,-,8,mask0.bmp,200,255,255,1,437,163,Handle 63 _Odd_Left,Fast_novel,standard.wav
1,Control,03/04/2014,UMEA Lab,454,4,4,24,male,right,novelS_,Novel,Sound,100,0,NA,-,3,mask0.bmp,200,63,63,1,486,186,Handle 63 _Odd_Left,Fast_novel,novel.wav
1,Control,03/04/2014,UMEA Lab,455,4,4,24,male,right,standardS_,Standard,Sound,100,0,NA,-,2,mask0.bmp,200,255,255,1,441,175,Handle 63 _Odd_Left,Fast_novel,standard.wav
1,Control,03/04/2014,UMEA Lab,456,4,4,24,male,right,standardS_,Standard,Sound,100,0,NA,-,7,mask0.bmp,200,63,63,1,542,198,Handle 63 _Odd_Left,Fast_novel,standard.wav
1,Control,03/04/2014,UMEA Lab,457,4,4,24,male,right,novelS_,Novel,Sound,100,0,NA,-,3,mask0.bmp,200,63,255,0,458,184,Handle 63 _Odd_Left,Fast_novel,novel.wav
1,Control,03/04/2014,UMEA Lab,458,4,4,24,male,right,standardS_,Standard,Sound,100,0,NA,-,6,mask0.bmp,200,255,255,1,526,163,Handle 63 _Odd_Left,Fast_novel,standard.wav
1,Control,03/04/2014,UMEA Lab,459,4,4,24,male,right,standardS_,Standard,Sound,100,0,NA,-,8,mask0.bmp,200,255,255,1,461,183,Handle 63 _Odd_Left,Fast_novel,standard.wav
1,Control,03/04/2014,UMEA Lab,460,4,4,24,male,right,standardS_,Standard,Sound,100,0,NA,-,1,mask0.bmp,200,63,63,1,454,171,Handle 63 _Odd_Left,Fast_novel,standard.wav
1,Control,03/04/2014,UMEA Lab,461,4,4,24,male,right,standardS_,Standard,Sound,100,0,NA,-,2,mask0.bmp,200,255,255,1,455,165,Handle 63 _Odd_Left,Fast_novel,standard.wav
1,Control,03/04/2014,UMEA Lab,462,4,4,24,male,right,novelS_,Novel,Sound,100,0,NA,-,7,mask0.bmp,200,63,63,1,487,158,Handle 63 _Odd_Left,Fast_novel,novel.wav
1,Control,03/04/2014,UMEA Lab,463,4,4,24,male,right,standardS_,Standard,Sound,100,0,NA,-,4,mask0.bmp,200,255,255,1,494,176,Handle 63 _Odd_Left,Fast_novel,standard.wav
1,Control,03/04/2014,UMEA Lab,464,4,4,24,male,right,standardS_,Standard,Sound,100,0,NA,-,2,mask0.bmp,200,255,63,0,495,388,Handle 63 _Odd_Left,Fast_novel,standard.wav
1,Control,03/04/2014,UMEA Lab,465,4,4,24,male,right,standardS_,Standard,Sound,100,0,NA,-,7,mask0.bmp,200,63,63,1,555,142,Handle 63 _Odd_Left,Fast_novel,standard.wav
1,Control,03/04/2014,UMEA Lab,466,4,4,24,male,right,standardS_,Standard,Sound,100,0,NA,-,3,mask0.bmp,200,63,255,0,453,179,Handle 63 _Odd_Left,Fast_novel,standard.wav
1,Control,03/04/2014,UMEA Lab,467,4,4,24,male,right,standardS_,Standard,Sound,100,0,NA,-,7,mask0.bmp,200,63,255,0,448,187,Handle 63 _Odd_Left,Fast_novel,standard.wav
1,Control,03/04/2014,UMEA Lab,468,4,4,24,male,right,novelS_,Novel,Sound,100,0,NA,-,8,mask0.bmp,200,255,255,1,521,188,Handle 63 _Odd_Left,Fast_novel,novel.wav
1,Control,03/04/2014,UMEA Lab,469,4,4,24,male,right,standardS_,Standard,Sound,100,0,NA,-,5,mask0.bmp,200,63,63,1,449,167,Handle 63 _Odd_Left,Fast_novel,standard.wav
1,Control,03/04/2014,UMEA Lab,470,4,4,24,male,right,standardS_,Standard,Sound,100,0,NA,-,8,mask0.bmp,200,255,255,1,489,170,Handle 63 _Odd_Left,Fast_novel,standard.wav
1,Control,03/04/2014,UMEA Lab,471,4,4,24,male,right,standardS_,Standard,Sound,100,0,NA,-,7,mask0.bmp,200,63,63,1,527,149,Handle 63 _Odd_Left,Fast_novel,standard.wav
1,Control,03/04/2014,UMEA Lab,472,4,4,24,male,right,novelS_,Novel,Sound,100,0,NA,-,6,mask0.bmp,200,255,255,1,500,177,Handle 63 _Odd_Left,Fast_novel,novel.wav
1,Control,03/04/2014,UMEA Lab,473,4,4,24,male,right,standardS_,Standard,Sound,100,0,NA,-,7,mask0.bmp,200,63,63,1,489,159,Handle 63 _Odd_Left,Fast_novel,standard.wav
1,Control,03/04/2014,UMEA Lab,474,4,4,24,male,right,standardS_,Standard,Sound,100,0,NA,-,6,mask0.bmp,200,255,255,1,595,191,Handle 63 _Odd_Left,Fast_novel,standard.wav
1,Control,03/04/2014,UMEA Lab,475,4,4,24,male,right,standardS_,Standard,Sound,100,0,NA,-,7,mask0.bmp,200,63,63,1,466,148,Handle 63 _Odd_Left,Fast_novel,standard.wav
1,Control,03/04/2014,UMEA Lab,476,4,4,24,male,right,standardS_,Standard,Sound,100,0,NA,-,4,mask0.bmp,200,255,255,1,538,175,Handle 63 _Odd_Left,Fast_novel,standard.wav
1,Control,03/04/2014,UMEA Lab,477,4,4,24,male,right,standardS_,Standard,Sound,100,0,NA,-,6,mask0.bmp,200,255,255,1,567,191,Handle 63 _Odd_Left,Fast_novel,standard.wav
1,Control,03/04/2014,UMEA Lab,478,4,4,24,male,right,standardS_,Standard,Sound,100,0,NA,-,4,mask0.bmp,200,255,63,0,479,216,Handle 63 _Odd_Left,Fast_novel,standard.wav
1,Control,03/04/2014,UMEA Lab,479,4,4,24,male,right,novelS_,Novel,Sound,100,0,NA,-,6,mask0.bmp,200,255,255,1,512,195,Handle 63 _Odd_Left,Fast_novel,novel.wav
1,Control,03/04/2014,UMEA Lab,480,4,4,24,male,right,standardS_,Standard,Sound,100,0,NA,-,3,mask0.bmp,200,63,63,1,470,206,Handle 63 _Odd_Left,Fast_novel,standard.wav
1,Control,03/04/2014,UMEA Lab,33,5,1,24,male,right,practice,standard_V,Vibration,100,5,NA,-,6,mask0.bmp,200,255,255,1,715,179,Handle 63 _Odd_Left,Fast_novel,silence.wav
1,Control,03/04/2014,UMEA Lab,34,5,1,24,male,right,practice,standard_V,Vibration,100,5,NA,-,7,mask0.bmp,200,63,63,1,477,183,Handle 63 _Odd_Left,Fast_novel,silence.wav
1,Control,03/04/2014,UMEA Lab,35,5,1,24,male,right,practice,standard_V,Vibration,100,5,NA,-,2,mask0.bmp,200,255,255,1,534,195,Handle 63 _Odd_Left,Fast_novel,silence.wav
1,Control,03/04/2014,UMEA Lab,36,5,1,24,male,right,practice,standard_V,Vibration,100,5,NA,-,1,mask0.bmp,200,62,255,0,483,167,Handle 63 _Odd_Left,Fast_novel,silence.wav
1,Control,03/04/2014,UMEA Lab,37,5,1,24,male,right,practice,standard_V,Vibration,100,5,NA,-,5,mask0.bmp,200,63,63,1,565,187,Handle 63 _Odd_Left,Fast_novel,silence.wav
1,Control,03/04/2014,UMEA Lab,38,5,1,24,male,right,practice,standard_V,Vibration,100,5,NA,-,4,mask0.bmp,200,255,255,1,504,177,Handle 63 _Odd_Left,Fast_novel,silence.wav
1,Control,03/04/2014,UMEA Lab,39,5,1,24,male,right,practice,standard_V,Vibration,100,5,NA,-,3,mask0.bmp,200,63,63,1,581,227,Handle 63 _Odd_Left,Fast_novel,silence.wav
1,Control,03/04/2014,UMEA Lab,40,5,1,24,male,right,practice,standard_V,Vibration,100,5,NA,-,8,mask0.bmp,200,255,255,1,500,196,Handle 63 _Odd_Left,Fast_novel,silence.wav
1,Control,03/04/2014,UMEA Lab,481,5,1,24,male,right,standard_V,Standard,Vibration,100,5,NA,-,8,mask0.bmp,200,255,255,1,510,185,Handle 63 _Odd_Left,Fast_novel,silence.wav
1,Control,03/04/2014,UMEA Lab,482,5,1,24,male,right,standard_V,Standard,Vibration,100,5,NA,-,2,mask0.bmp,200,255,63,0,514,196,Handle 63 _Odd_Left,Fast_novel,silence.wav
1,Control,03/04/2014,UMEA Lab,483,5,1,24,male,right,standard_V,Standard,Vibration,100,5,NA,-,5,mask0.bmp,200,63,63,1,589,212,Handle 63 _Odd_Left,Fast_novel,silence.wav
1,Control,03/04/2014,UMEA Lab,484,5,1,24,male,right,standard_V,Standard,Vibration,100,5,NA,-,4,mask0.bmp,200,255,255,1,493,180,Handle 63 _Odd_Left,Fast_novel,silence.wav
1,Control,03/04/2014,UMEA Lab,485,5,1,24,male,right,standard_V,Standard,Vibration,100,5,NA,-,7,mask0.bmp,200,63,63,1,613,221,Handle 63 _Odd_Left,Fast_novel,silence.wav
1,Control,03/04/2014,UMEA Lab,486,5,1,24,male,right,standard_V,Standard,Vibration,100,5,NA,-,6,mask0.bmp,200,255,255,1,556,180,Handle 63 _Odd_Left,Fast_novel,silence.wav
1,Control,03/04/2014,UMEA Lab,487,5,1,24,male,right,standard_V,Standard,Vibration,100,5,NA,-,1,mask0.bmp,200,63,63,1,520,196,Handle 63 _Odd_Left,Fast_novel,silence.wav
1,Control,03/04/2014,UMEA Lab,488,5,1,24,male,right,novel_V,Novel,Vibration,100,15,NA,-,6,mask0.bmp,200,255,255,1,450,191,Handle 63 _Odd_Left,Fast_novel,silence.wav
1,Control,03/04/2014,UMEA Lab,489,5,1,24,male,right,standard_V,Standard,Vibration,100,5,NA,-,7,mask0.bmp,200,63,255,0,517,72,Handle 63 _Odd_Left,Fast_novel,silence.wav
1,Control,03/04/2014,UMEA Lab,490,5,1,24,male,right,standard_V,Standard,Vibration,100,5,NA,-,5,mask0.bmp,200,63,255,0,516,185,Handle 63 _Odd_Left,Fast_novel,silence.wav
1,Control,03/04/2014,UMEA Lab,491,5,1,24,male,right,standard_V,Standard,Vibration,100,5,NA,-,4,mask0.bmp,200,255,255,1,466,176,Handle 63 _Odd_Left,Fast_novel,silence.wav
1,Control,03/04/2014,UMEA Lab,492,5,1,24,male,right,standard_V,Standard,Vibration,100,5,NA,-,2,mask0.bmp,200,255,255,1,598,172,Handle 63 _Odd_Left,Fast_novel,silence.wav
1,Control,03/04/2014,UMEA Lab,493,5,1,24,male,right,novel_V,Novel,Vibration,100,15,NA,-,6,mask0.bmp,200,255,255,1,540,180,Handle 63 _Odd_Left,Fast_novel,silence.wav
1,Control,03/04/2014,UMEA Lab,494,5,1,24,male,right,standard_V,Standard,Vibration,100,5,NA,-,8,mask0.bmp,200,255,255,1,514,165,Handle 63 _Odd_Left,Fast_novel,silence.wav
1,Control,03/04/2014,UMEA Lab,495,5,1,24,male,right,standard_V,Standard,Vibration,100,5,NA,-,2,mask0.bmp,200,255,63,0,460,205,Handle 63 _Odd_Left,Fast_novel,silence.wav
1,Control,03/04/2014,UMEA Lab,496,5,1,24,male,right,novel_V,Novel,Vibration,100,15,NA,-,4,mask0.bmp,200,255,255,1,600,181,Handle 63 _Odd_Left,Fast_novel,silence.wav
1,Control,03/04/2014,UMEA Lab,497,5,1,24,male,right,standard_V,Standard,Vibration,100,5,NA,-,6,mask0.bmp,200,255,63,0,456,214,Handle 63 _Odd_Left,Fast_novel,silence.wav
1,Control,03/04/2014,UMEA Lab,498,5,1,24,male,right,standard_V,Standard,Vibration,100,5,NA,-,2,mask0.bmp,200,255,255,1,519,170,Handle 63 _Odd_Left,Fast_novel,silence.wav
1,Control,03/04/2014,UMEA Lab,499,5,1,24,male,right,standard_V,Standard,Vibration,100,5,NA,-,4,mask0.bmp,200,255,255,1,524,180,Handle 63 _Odd_Left,Fast_novel,silence.wav
1,Control,03/04/2014,UMEA Lab,500,5,1,24,male,right,standard_V,Standard,Vibration,100,5,NA,-,5,mask0.bmp,200,63,255,0,505,140,Handle 63 _Odd_Left,Fast_novel,silence.wav
1,Control,03/04/2014,UMEA Lab,501,5,1,24,male,right,standard_V,Standard,Vibration,100,5,NA,-,3,mask0.bmp,200,63,63,1,488,220,Handle 63 _Odd_Left,Fast_novel,silence.wav
1,Control,03/04/2014,UMEA Lab,502,5,1,24,male,right,novel_V,Novel,Vibration,100,15,NA,-,2,mask0.bmp,200,255,255,1,476,194,Handle 63 _Odd_Left,Fast_novel,silence.wav
1,Control,03/04/2014,UMEA Lab,503,5,1,24,male,right,standard_V,Standard,Vibration,100,5,NA,-,5,mask0.bmp,200,63,255,0,533,195,Handle 63 _Odd_Left,Fast_novel,silence.wav
1,Control,03/04/2014,UMEA Lab,504,5,1,24,male,right,standard_V,Standard,Vibration,100,5,NA,-,7,mask0.bmp,200,63,63,1,538,348,Handle 63 _Odd_Left,Fast_novel,silence.wav
1,Control,03/04/2014,UMEA Lab,505,5,1,24,male,right,standard_V,Standard,Vibration,100,5,NA,-,8,mask0.bmp,200,255,255,1,491,182,Handle 63 _Odd_Left,Fast_novel,silence.wav
1,Control,03/04/2014,UMEA Lab,506,5,1,24,male,right,standard_V,Standard,Vibration,100,5,NA,-,4,mask0.bmp,200,255,255,1,678,196,Handle 63 _Odd_Left,Fast_novel,silence.wav
1,Control,03/04/2014,UMEA Lab,507,5,1,24,male,right,novel_V,Novel,Vibration,100,15,NA,-,2,mask0.bmp,200,255,255,1,480,199,Handle 63 _Odd_Left,Fast_novel,silence.wav
1,Control,03/04/2014,UMEA Lab,508,5,1,24,male,right,standard_V,Standard,Vibration,100,5,NA,-,8,mask0.bmp,200,255,255,1,493,144,Handle 63 _Odd_Left,Fast_novel,silence.wav
1,Control,03/04/2014,UMEA Lab,509,5,1,24,male,right,standard_V,Standard,Vibration,100,5,NA,-,4,mask0.bmp,200,255,255,1,449,151,Handle 63 _Odd_Left,Fast_novel,silence.wav
1,Control,03/04/2014,UMEA Lab,510,5,1,24,male,right,standard_V,Standard,Vibration,100,5,NA,-,8,mask0.bmp,200,255,255,1,492,152,Handle 63 _Odd_Left,Fast_novel,silence.wav
1,Control,03/04/2014,UMEA Lab,511,5,1,24,male,right,standard_V,Standard,Vibration,100,5,NA,-,4,mask0.bmp,200,255,255,1,533,170,Handle 63 _Odd_Left,Fast_novel,silence.wav
1,Control,03/04/2014,UMEA Lab,512,5,1,24,male,right,standard_V,Standard,Vibration,100,5,NA,-,6,mask0.bmp,200,255,255,1,499,170,Handle 63 _Odd_Left,Fast_novel,silence.wav
1,Control,03/04/2014,UMEA Lab,513,5,1,24,male,right,novel_V,Novel,Vibration,100,15,NA,-,2,mask0.bmp,200,255,63,0,470,210,Handle 63 _Odd_Left,Fast_novel,silence.wav
1,Control,03/04/2014,UMEA Lab,514,5,1,24,male,right,standard_V,Standard,Vibration,100,5,NA,-,5,mask0.bmp,200,63,255,0,510,156,Handle 63 _Odd_Left,Fast_novel,silence.wav
1,Control,03/04/2014,UMEA Lab,515,5,1,24,male,right,standard_V,Standard,Vibration,100,5,NA,-,3,mask0.bmp,200,63,63,1,479,219,Handle 63 _Odd_Left,Fast_novel,silence.wav
1,Control,03/04/2014,UMEA Lab,516,5,1,24,male,right,standard_V,Standard,Vibration,100,5,NA,-,8,mask0.bmp,200,255,255,1,480,165,Handle 63 _Odd_Left,Fast_novel,silence.wav
1,Control,03/04/2014,UMEA Lab,517,5,1,24,male,right,standard_V,Standard,Vibration,100,5,NA,-,1,mask0.bmp,200,63,255,0,493,170,Handle 63 _Odd_Left,Fast_novel,silence.wav
1,Control,03/04/2014,UMEA Lab,518,5,1,24,male,right,standard_V,Standard,Vibration,100,5,NA,-,8,mask0.bmp,200,255,255,1,449,158,Handle 63 _Odd_Left,Fast_novel,silence.wav
1,Control,03/04/2014,UMEA Lab,519,5,1,24,male,right,standard_V,Standard,Vibration,100,5,NA,-,6,mask0.bmp,200,255,255,1,529,161,Handle 63 _Odd_Left,Fast_novel,silence.wav
1,Control,03/04/2014,UMEA Lab,520,5,1,24,male,right,novel_V,Novel,Vibration,100,15,NA,-,4,mask0.bmp,200,255,255,1,419,158,Handle 63 _Odd_Left,Fast_novel,silence.wav
1,Control,03/04/2014,UMEA Lab,521,5,1,24,male,right,standard_V,Standard,Vibration,100,5,NA,-,1,mask0.bmp,200,63,63,1,584,191,Handle 63 _Odd_Left,Fast_novel,silence.wav
1,Control,03/04/2014,UMEA Lab,522,5,1,24,male,right,standard_V,Standard,Vibration,100,5,NA,-,2,mask0.bmp,200,255,255,1,432,154,Handle 63 _Odd_Left,Fast_novel,silence.wav
1,Control,03/04/2014,UMEA Lab,523,5,1,24,male,right,novel_V,Novel,Vibration,100,15,NA,-,5,mask0.bmp,200,63,63,1,526,209,Handle 63 _Odd_Left,Fast_novel,silence.wav
1,Control,03/04/2014,UMEA Lab,524,5,1,24,male,right,standard_V,Standard,Vibration,100,5,NA,-,6,mask0.bmp,200,255,255,1,426,167,Handle 63 _Odd_Left,Fast_novel,silence.wav
1,Control,03/04/2014,UMEA Lab,525,5,1,24,male,right,standard_V,Standard,Vibration,100,5,NA,-,8,mask0.bmp,200,255,255,1,473,159,Handle 63 _Odd_Left,Fast_novel,silence.wav
1,Control,03/04/2014,UMEA Lab,526,5,1,24,male,right,standard_V,Standard,Vibration,100,5,NA,-,7,mask0.bmp,200,63,63,1,458,214,Handle 63 _Odd_Left,Fast_novel,silence.wav
1,Control,03/04/2014,UMEA Lab,527,5,1,24,male,right,standard_V,Standard,Vibration,100,5,NA,-,2,mask0.bmp,200,255,255,1,412,152,Handle 63 _Odd_Left,Fast_novel,silence.wav
1,Control,03/04/2014,UMEA Lab,528,5,1,24,male,right,standard_V,Standard,Vibration,100,5,NA,-,4,mask0.bmp,200,255,63,0,478,197,Handle 63 _Odd_Left,Fast_novel,silence.wav
1,Control,03/04/2014,UMEA Lab,529,5,1,24,male,right,novel_V,Novel,Vibration,100,15,NA,-,3,mask0.bmp,200,63,255,0,426,183,Handle 63 _Odd_Left,Fast_novel,silence.wav
1,Control,03/04/2014,UMEA Lab,530,5,1,24,male,right,standard_V,Standard,Vibration,100,5,NA,-,6,mask0.bmp,200,255,255,1,382,133,Handle 63 _Odd_Left,Fast_novel,silence.wav
1,Control,03/04/2014,UMEA Lab,531,5,1,24,male,right,standard_V,Standard,Vibration,100,5,NA,-,3,mask0.bmp,200,63,63,1,480,239,Handle 63 _Odd_Left,Fast_novel,silence.wav
1,Control,03/04/2014,UMEA Lab,532,5,1,24,male,right,standard_V,Standard,Vibration,100,5,NA,-,4,mask0.bmp,200,255,255,1,407,177,Handle 63 _Odd_Left,Fast_novel,silence.wav
1,Control,03/04/2014,UMEA Lab,533,5,1,24,male,right,standard_V,Standard,Vibration,100,5,NA,-,2,mask0.bmp,200,255,63,0,414,227,Handle 63 _Odd_Left,Fast_novel,silence.wav
1,Control,03/04/2014,UMEA Lab,534,5,1,24,male,right,standard_V,Standard,Vibration,100,5,NA,-,5,mask0.bmp,200,63,63,1,403,222,Handle 63 _Odd_Left,Fast_novel,silence.wav
1,Control,03/04/2014,UMEA Lab,535,5,1,24,male,right,novel_V,Novel,Vibration,100,15,NA,-,7,mask0.bmp,200,63,255,0,441,198,Handle 63 _Odd_Left,Fast_novel,silence.wav
1,Control,03/04/2014,UMEA Lab,536,5,1,24,male,right,standard_V,Standard,Vibration,100,5,NA,-,1,mask0.bmp,200,63,255,0,464,195,Handle 63 _Odd_Left,Fast_novel,silence.wav
1,Control,03/04/2014,UMEA Lab,537,5,1,24,male,right,standard_V,Standard,Vibration,100,5,NA,-,2,mask0.bmp,200,255,255,1,399,144,Handle 63 _Odd_Left,Fast_novel,silence.wav
1,Control,03/04/2014,UMEA Lab,538,5,1,24,male,right,novel_V,Novel,Vibration,100,15,NA,-,8,mask0.bmp,200,255,255,1,480,181,Handle 63 _Odd_Left,Fast_novel,silence.wav
1,Control,03/04/2014,UMEA Lab,539,5,1,24,male,right,standard_V,Standard,Vibration,100,5,NA,-,7,mask0.bmp,200,63,63,1,482,240,Handle 63 _Odd_Left,Fast_novel,silence.wav
1,Control,03/04/2014,UMEA Lab,540,5,1,24,male,right,standard_V,Standard,Vibration,100,5,NA,-,1,mask0.bmp,200,63,255,0,544,152,Handle 63 _Odd_Left,Fast_novel,silence.wav
1,Control,03/04/2014,UMEA Lab,541,5,1,24,male,right,standard_V,Standard,Vibration,100,5,NA,-,3,mask0.bmp,200,63,255,0,469,414,Handle 63 _Odd_Left,Fast_novel,silence.wav
1,Control,03/04/2014,UMEA Lab,542,5,1,24,male,right,standard_V,Standard,Vibration,100,5,NA,-,5,mask0.bmp,200,63,255,0,435,137,Handle 63 _Odd_Left,Fast_novel,silence.wav
1,Control,03/04/2014,UMEA Lab,543,5,1,24,male,right,standard_V,Standard,Vibration,100,5,NA,-,3,mask0.bmp,200,63,63,1,560,229,Handle 63 _Odd_Left,Fast_novel,silence.wav
1,Control,03/04/2014,UMEA Lab,544,5,1,24,male,right,novel_V,Novel,Vibration,100,15,NA,-,2,mask0.bmp,200,255,255,1,457,185,Handle 63 _Odd_Left,Fast_novel,silence.wav
1,Control,03/04/2014,UMEA Lab,545,5,1,24,male,right,standard_V,Standard,Vibration,100,5,NA,-,1,mask0.bmp,200,63,63,1,561,254,Handle 63 _Odd_Left,Fast_novel,silence.wav
1,Control,03/04/2014,UMEA Lab,546,5,1,24,male,right,standard_V,Standard,Vibration,100,5,NA,-,7,mask0.bmp,200,63,255,0,482,195,Handle 63 _Odd_Left,Fast_novel,silence.wav
1,Control,03/04/2014,UMEA Lab,547,5,1,24,male,right,novel_V,Novel,Vibration,100,15,NA,-,1,mask0.bmp,200,63,63,1,564,232,Handle 63 _Odd_Left,Fast_novel,silence.wav
1,Control,03/04/2014,UMEA Lab,548,5,1,24,male,right,standard_V,Standard,Vibration,100,5,NA,-,6,mask0.bmp,200,255,255,1,493,182,Handle 63 _Odd_Left,Fast_novel,silence.wav
1,Control,03/04/2014,UMEA Lab,549,5,1,24,male,right,standard_V,Standard,Vibration,100,5,NA,-,7,mask0.bmp,200,63,255,0,482,113,Handle 63 _Odd_Left,Fast_novel,silence.wav
1,Control,03/04/2014,UMEA Lab,550,5,1,24,male,right,standard_V,Standard,Vibration,100,5,NA,-,5,mask0.bmp,200,63,255,0,512,69,Handle 63 _Odd_Left,Fast_novel,silence.wav
1,Control,03/04/2014,UMEA Lab,551,5,1,24,male,right,standard_V,Standard,Vibration,100,5,NA,-,3,mask0.bmp,200,63,63,1,457,250,Handle 63 _Odd_Left,Fast_novel,silence.wav
1,Control,03/04/2014,UMEA Lab,552,5,1,24,male,right,novel_V,Novel,Vibration,100,15,NA,-,7,mask0.bmp,200,63,255,0,481,198,Handle 63 _Odd_Left,Fast_novel,silence.wav
1,Control,03/04/2014,UMEA Lab,553,5,1,24,male,right,standard_V,Standard,Vibration,100,5,NA,-,3,mask0.bmp,200,63,63,1,484,229,Handle 63 _Odd_Left,Fast_novel,silence.wav
1,Control,03/04/2014,UMEA Lab,554,5,1,24,male,right,standard_V,Standard,Vibration,100,5,NA,-,5,mask0.bmp,200,63,63,1,524,229,Handle 63 _Odd_Left,Fast_novel,silence.wav
1,Control,03/04/2014,UMEA Lab,555,5,1,24,male,right,standard_V,Standard,Vibration,100,5,NA,-,1,mask0.bmp,200,63,63,1,531,239,Handle 63 _Odd_Left,Fast_novel,silence.wav
1,Control,03/04/2014,UMEA Lab,556,5,1,24,male,right,standard_V,Standard,Vibration,100,5,NA,-,4,mask0.bmp,200,255,63,0,466,234,Handle 63 _Odd_Left,Fast_novel,silence.wav
1,Control,03/04/2014,UMEA Lab,557,5,1,24,male,right,standard_V,Standard,Vibration,100,5,NA,-,6,mask0.bmp,200,255,255,1,464,179,Handle 63 _Odd_Left,Fast_novel,silence.wav
1,Control,03/04/2014,UMEA Lab,558,5,1,24,male,right,standard_V,Standard,Vibration,100,5,NA,-,8,mask0.bmp,200,255,63,0,427,454,Handle 63 _Odd_Left,Fast_novel,silence.wav
1,Control,03/04/2014,UMEA Lab,559,5,1,24,male,right,standard_V,Standard,Vibration,100,5,NA,-,2,mask0.bmp,200,255,63,0,502,234,Handle 63 _Odd_Left,Fast_novel,silence.wav
1,Control,03/04/2014,UMEA Lab,560,5,1,24,male,right,novel_V,Novel,Vibration,100,15,NA,-,3,mask0.bmp,200,63,63,1,548,250,Handle 63 _Odd_Left,Fast_novel,silence.wav
1,Control,03/04/2014,UMEA Lab,561,5,1,24,male,right,standard_V,Standard,Vibration,100,5,NA,-,8,mask0.bmp,200,255,255,1,513,199,Handle 63 _Odd_Left,Fast_novel,silence.wav
1,Control,03/04/2014,UMEA Lab,562,5,1,24,male,right,standard_V,Standard,Vibration,100,5,NA,-,1,mask0.bmp,200,63,63,1,525,241,Handle 63 _Odd_Left,Fast_novel,silence.wav
1,Control,03/04/2014,UMEA Lab,563,5,1,24,male,right,standard_V,Standard,Vibration,100,5,NA,-,8,mask0.bmp,200,255,255,1,583,184,Handle 63 _Odd_Left,Fast_novel,silence.wav
1,Control,03/04/2014,UMEA Lab,564,5,1,24,male,right,standard_V,Standard,Vibration,100,5,NA,-,2,mask0.bmp,200,255,63,0,455,197,Handle 63 _Odd_Left,Fast_novel,silence.wav
1,Control,03/04/2014,UMEA Lab,565,5,1,24,male,right,novel_V,Novel,Vibration,100,15,NA,-,3,mask0.bmp,200,63,63,1,518,242,Handle 63 _Odd_Left,Fast_novel,silence.wav
